timestamp,gaze2d_x,gaze2d_y,gaze3d_x,gaze3d_y,gaze3d_z,pupil_left,pupil_right,accel_x,accel_y,accel_z,gyro_x,gyro_y,gyro_z,juego,timestamp_abs,participant
1876.007456,0.5138000000000001,0.4940000000000001,-19.750000000000004,-13.000000000000002,654.7300000000001,3.2970000000000006,3.3050000000000006,0.1927358979868,9.304818850839936,-2.062246847821521,-3.12534838,-4.564921431749951,4.272489860362164,FallGuys,1876.007456,AA04021030
1876.027437,0.5055000000000002,0.4966000000000001,-8.170000000000002,-14.690000000000005,634.1300000000001,3.342000000000001,3.3010000000000006,,,,,,,FallGuys,1876.027437,AA04021030
1876.047529,0.5053000000000002,0.5002000000000002,-7.150000000000001,-15.720000000000002,572.7400000000001,3.346000000000001,3.303000000000001,0.2950894338742,9.016704890044766,-2.269032043838155,1.38322835,-5.415087714483321,3.329537840142507,FallGuys,1876.047529,AA04021030
1876.06751,0.5043000000000002,0.5036000000000002,-5.600000000000001,-17.110000000000003,541.8400000000001,3.331000000000001,3.3080000000000007,0.2914980817378,9.205084201296144,-2.145687767776464,6.12358929,-5.864066809359675,1.361105164000575,FallGuys,1876.06751,AA04021030
1876.087602,0.5045000000000002,0.5076000000000002,-6.050000000000002,-20.100000000000005,553.7400000000001,3.326000000000001,3.376000000000001,0.4231809934058,9.957794619235983,-2.2261303030279764,6.93109557,-6.045881448844399,1.728440851933761,FallGuys,1876.087602,AA04021030
1876.107583,0.5035000000000002,0.5102000000000002,-5.020000000000001,-22.31000000000001,567.5000000000001,3.335000000000001,3.343000000000001,0.4572988387016,9.703513515938315,-2.314049140437765,3.90294702,-5.36749440017511,2.65439803666464,FallGuys,1876.107583,AA04021030
1876.127673,0.5029000000000001,0.5137000000000002,-4.300000000000001,-24.320000000000004,559.3000000000001,3.3160000000000007,3.338000000000001,0.5387028204600001,9.622043818600975,-2.1676148118801826,2.57953395,-3.428741875307973,2.785023801058926,FallGuys,1876.127673,AA04021030
1876.147655,0.5019000000000001,0.5199000000000001,-2.890000000000001,-26.100000000000005,512.9200000000001,3.342000000000001,3.346000000000001,0.4058227914132,9.216575877738752,-2.1175338566936426,1.95895042,-2.089803191606487,2.7908936337435093,FallGuys,1876.147655,AA04021030
1876.167746,0.5014000000000002,0.5213000000000002,-2.4500000000000006,-27.430000000000007,521.5800000000002,3.334000000000001,3.3240000000000007,0.3453683637838,9.081836950819875,-2.192922456623313,6.04134328,-2.1101561204682,3.4143796224456446,FallGuys,1876.167746,AA04021030
1876.187727,0.5004000000000002,0.5245000000000002,-1.3100000000000005,-28.730000000000004,509.6000000000001,3.3360000000000007,3.3250000000000006,0.3669164766022,9.42570828813658,-2.308237797569602,7.96290915,-2.2998154187805087,4.104428587087773,FallGuys,1876.187727,AA04021030
1876.207819,0.5001000000000002,0.5253000000000002,-0.9800000000000002,-29.170000000000005,508.8900000000001,3.338000000000001,3.3250000000000006,0.4124069369965999,9.313432339927658,-2.341282375898684,8.09749353,-2.2674853571403397,3.501328626032538,FallGuys,1876.207819,AA04021030
1876.2278,0.4991000000000001,0.5268000000000002,-0.0,-29.620000000000005,500.5000000000001,3.3320000000000007,3.322000000000001,0.5123662381264,8.984360101404006,-2.4787804668369118,10.07139777,-2.1603273716584352,3.7537336431395847,FallGuys,1876.2278,AA04021030
1876.247891,0.4979000000000002,0.5237000000000002,1.3300000000000003,-28.38000000000001,511.1000000000001,3.3650000000000007,3.335000000000001,0.5638422854148,9.051455898084486,-2.6295026985378582,13.13693087,-2.28540429608673,5.1791621666556455,FallGuys,1876.247891,AA04021030
1876.267873,0.4971000000000001,0.5235000000000002,2.24,-28.910000000000007,522.5800000000002,3.383000000000001,3.347000000000001,0.634472210764,9.327465281922311,-2.686946445093105,15.73889555,-2.041524797942616,8.016736563075701,FallGuys,1876.267873,AA04021030
1876.287965,0.4962000000000001,0.5214000000000002,3.3000000000000007,-27.510000000000005,520.6700000000001,3.392000000000001,3.3570000000000007,0.6769698777114,9.434910368055991,-2.6651136522552865,15.54449589,-1.6327146476210428,9.328683880565931,FallGuys,1876.287965,AA04021030
1876.307945,0.4949000000000002,0.5166000000000002,4.720000000000001,-24.540000000000006,520.1100000000001,3.411000000000001,3.400000000000001,0.6865468167418,9.492658439865547,-2.8511767453674866,14.49772849,-0.5734544652582898,8.88185665758447,FallGuys,1876.307945,AA04021030
1876.328037,0.4942000000000001,0.5134000000000002,5.420000000000001,-22.270000000000003,512.1200000000001,3.4130000000000007,3.427000000000001,0.6590131170294,9.520744134291942,-2.7708642946365174,14.06406771,0.080314785457662,7.642165102966926,FallGuys,1876.328037,AA04021030
1876.348017,0.4937000000000001,0.5106000000000002,6.050000000000002,-20.600000000000005,513.0200000000001,3.420000000000001,3.428000000000001,0.6189096848396001,9.708631880297055,-2.805293692064529,13.33133053,0.49072412345922,6.40833760512099,FallGuys,1876.348017,AA04021030
1876.368109,0.4934000000000001,0.5098000000000001,6.320000000000001,-20.170000000000005,514.3000000000001,3.416000000000001,3.428000000000001,0.5452869660434,9.6833827781851,-2.806046137978307,10.70693512,0.8573574042978209,5.436065301043292,FallGuys,1876.368109,AA04021030
1876.388089,0.4941000000000001,0.5070000000000001,5.620000000000001,-18.410000000000004,512.6200000000001,3.4450000000000007,3.4410000000000007,0.4704671298683999,9.587208820327117,-2.818036066226154,9.78727519,0.6512732824505669,5.005945019617206,FallGuys,1876.388089,AA04021030
1876.408182,0.4945000000000001,0.5059000000000001,5.200000000000001,-17.900000000000002,518.2400000000001,3.4450000000000007,3.468000000000001,0.4692700124896,9.468031112140318,-2.722332013630995,9.17416857,-0.339443321916216,5.056005422625927,FallGuys,1876.408182,AA04021030
1876.428162,0.4959000000000002,0.5035000000000002,3.9500000000000006,-17.360000000000003,548.7000000000002,3.4290000000000007,3.5990000000000006,0.4944094774444,9.47029639898047,-2.65121760596007,8.867615259999999,-0.698121095745717,4.375493824933959,FallGuys,1876.428162,AA04021030
1876.448253,0.4620000000000001,0.5006000000000002,38.220000000000006,-14.300000000000002,486.7700000000001,3.517000000000001,3.6350000000000007,0.757176742091,9.49432937408821,-2.6734600365031085,8.09749353,-0.2954902190013689,4.687397315644323,FallGuys,1876.448253,AA04021030
1876.468235,0.4174000000000001,0.5111000000000001,83.31000000000002,-20.920000000000005,483.80000000000007,3.557000000000001,,0.8661144235618,9.35399872769491,-2.755003249896088,7.7012173,1.1202238918126408,4.371190081144173,FallGuys,1876.468235,AA04021030
1876.488326,0.4159000000000001,0.5127000000000002,80.15000000000002,-20.670000000000005,457.2800000000001,3.5660000000000007,3.4780000000000006,0.8601288366677999,9.190101436983916,-2.7171061495083277,8.06758589,3.179350855203369,4.025236497798852,FallGuys,1876.488326,AA04021030
1876.508307,0.4191000000000001,0.5091000000000001,83.13000000000001,-20.120000000000005,492.6400000000001,3.480000000000001,3.520000000000001,0.7440084509242,9.161141961375272,-2.850470856126697,10.30318198,6.027032630527418,3.037745591664252,FallGuys,1876.508307,AA04021030
1876.528399,0.4184000000000001,0.5096000000000002,81.61000000000001,-19.880000000000003,479.6700000000001,3.512000000000001,3.5060000000000007,0.6290851825593999,9.264469223620065,-2.9171046966431686,11.44714921,7.007857776440262,2.653453942940452,FallGuys,1876.528399,AA04021030
1876.54838,0.4191000000000001,0.5084000000000002,83.13000000000001,-19.74000000000001,492.86000000000007,3.557000000000001,3.4860000000000007,0.505782092543,9.540778433466244,-2.978895689126212,10.72936585,7.139711309271828,3.1299282184115187,FallGuys,1876.54838,AA04021030
1876.568471,0.4200000000000001,0.5058000000000001,82.26000000000002,-18.190000000000005,492.9800000000001,3.5870000000000006,,0.5764120178922,9.468869060067922,-2.9256711666713167,9.21903003,6.208448527897224,5.437604067065877,FallGuys,1876.568471,AA04021030
1876.588452,0.4218000000000001,0.5113000000000002,82.26000000000002,-21.90000000000001,504.6000000000001,3.5980000000000008,3.527000000000001,0.601551482847,9.440902051210388,-2.97663616407186,8.33675465,5.297820793404762,7.266968985159891,FallGuys,1876.588452,AA04021030
1876.608545,0.4226000000000001,0.5102000000000002,80.63000000000001,-21.000000000000004,499.8200000000001,3.616000000000001,3.5220000000000007,0.6506332953778,9.29252438419103,-2.9952758455020616,8.54610813,5.002242829873779,6.955242540201417,FallGuys,1876.608545,AA04021030
1876.628525,0.4232000000000001,0.5097000000000002,78.36000000000001,-20.300000000000004,490.0600000000001,3.616000000000001,3.5220000000000007,0.616515450082,9.33873203557197,-3.0283509576865746,8.99472273,5.2216542529442345,5.326307831720127,FallGuys,1876.628525,AA04021030
1876.648616,0.4242000000000001,0.5082000000000002,75.51000000000002,-18.950000000000003,477.86000000000007,3.6220000000000008,3.537000000000001,0.5195489423992,9.44732284474042,-3.067342849810083,8.015247519999999,5.728207421805015,1.847655276283109,FallGuys,1876.648616,AA04021030
1876.668597,0.4274000000000001,0.5074000000000002,75.06000000000002,-19.120000000000005,496.6800000000001,3.616000000000001,3.531000000000001,0.4255752281634,9.393930892730658,-2.987457784528322,6.88623411,6.348590112282433,0.2710825655851108,FallGuys,1876.668597,AA04021030
1876.688689,0.4297000000000001,0.5069000000000001,69.11000000000001,-17.910000000000004,472.2600000000001,3.5950000000000006,3.549000000000001,0.3040678142151999,9.341953031135413,-2.8778886818799654,5.77217452,6.038457079090968,-0.3968156898041911,FallGuys,1876.688689,AA04021030
1876.70867,0.4351000000000001,0.5050000000000001,65.43,-17.180000000000003,484.3800000000001,3.5540000000000007,3.552000000000001,0.2645629407147999,9.286722715348118,-2.823925886782499,4.55343819,4.70891181537294,0.8642133187900798,FallGuys,1876.70867,AA04021030
1876.728761,0.4368000000000001,0.5045000000000002,62.000000000000014,-16.430000000000003,471.7500000000001,3.533000000000001,3.560000000000001,0.2885052882908,9.120528679168366,-2.7622872258099447,4.17211578,2.26188031473726,2.72968090505838,FallGuys,1876.728761,AA04021030
1876.748742,0.4379000000000001,0.5038000000000001,60.49000000000001,-15.870000000000005,468.11000000000007,3.5220000000000007,3.557000000000001,0.4507146931181999,9.161579945622906,-2.736132883887136,5.09177571,-0.6357236925417838,3.590192034105033,FallGuys,1876.748742,AA04021030
1876.768835,0.4375000000000001,0.5059000000000001,58.30000000000001,-16.35,448.9400000000001,3.5100000000000007,3.580000000000001,0.5303229988084,9.262420910474043,-2.765522394644593,5.68992851,-1.026935896635558,1.426025858342106,FallGuys,1876.768835,AA04021030
1876.788815,0.4405000000000001,0.5048000000000001,55.77000000000001,-15.790000000000004,450.80000000000007,3.504000000000001,3.588000000000001,0.514760472884,9.385385620299362,-2.8002263836247367,6.09368165,-0.6183963125084639,-0.571799075141217,FallGuys,1876.788815,AA04021030
1876.808906,0.4420000000000001,0.5035000000000002,55.07000000000001,-15.270000000000003,456.80000000000007,3.5260000000000007,3.589000000000001,0.4363492845726,9.451457029213536,-2.811822572365001,5.89928199,-0.880206301424919,1.433057261893593,FallGuys,1876.808906,AA04021030
1876.828887,0.4438000000000001,0.5035000000000002,54.64000000000001,-15.610000000000005,468.0400000000001,3.512000000000001,3.592000000000001,0.5159575902628,9.432634020030829,-2.805373894679142,5.70488233,-1.822527888033341,3.796591372757904,FallGuys,1876.828887,AA04021030
1876.848979,0.4461000000000001,0.5030000000000001,54.78000000000001,-16.030000000000005,489.3200000000001,3.508000000000001,3.584000000000001,0.4165968478224,9.353682078715746,-2.791039864136293,5.55534413,-1.494298870143597,2.6796031743107336,FallGuys,1876.848979,AA04021030
1876.86896,0.4471000000000001,0.5033000000000002,53.26000000000001,-16.040000000000003,485.4300000000001,3.507000000000001,3.552000000000001,0.4746570406942,9.31723225229754,-2.717815613221899,4.45623836,-1.39858688018448,2.590463424130785,FallGuys,1876.86896,AA04021030
1876.889052,0.4502000000000001,0.5016000000000002,53.51000000000001,-16.040000000000003,518.2800000000001,3.524000000000001,3.5380000000000007,0.2950894338742,9.17141082425469,-2.5632102790701814,3.77583955,-0.999905655726138,0.869916100856061,FallGuys,1876.889052,AA04021030
1876.909033,0.4515000000000001,0.5011000000000002,50.98000000000001,-15.360000000000005,507.4100000000001,3.513000000000001,3.557000000000001,0.1939330153656,9.145627174696264,-2.569356481048084,3.11039456,-1.387240181017257,1.097481623646744,FallGuys,1876.909033,AA04021030
1876.929124,0.4519000000000001,0.5011000000000002,52.88000000000001,-16.030000000000005,530.4700000000001,3.511000000000001,3.543000000000001,0.2017142783277999,9.280171250291032,-2.5783729212820523,2.44494957,-3.4819171283673627,3.361978749964191,FallGuys,1876.929124,AA04021030
1876.949105,0.4520000000000001,0.5002000000000002,54.02000000000001,-15.820000000000004,542.3800000000001,3.505000000000001,3.568000000000001,0.2172768042522,9.216973191719116,-2.4841648866424544,1.69725857,-4.543938069277005,5.162371699790969,FallGuys,1876.949105,AA04021030
1876.969196,0.4522000000000001,0.5002000000000002,54.610000000000014,-16.1,551.5500000000001,3.503000000000001,3.5620000000000007,0.2914980817378,9.209005448934494,-2.443919647100323,1.68978166,-5.308610589136764,6.203961962442573,FallGuys,1876.969196,AA04021030
1876.989177,0.4524000000000001,0.4999000000000002,55.40000000000001,-16.210000000000004,560.9700000000001,3.5020000000000007,3.559000000000001,0.3645222418445999,9.508342718792523,-2.2994892623287906,2.29541137,-5.480954059241703,5.8966170106702105,FallGuys,1876.989177,AA04021030
1877.009269,0.4521000000000001,0.4992000000000001,54.81000000000001,-15.500000000000004,551.8700000000001,3.496000000000001,3.561000000000001,0.4555031626334,9.453882134276409,-2.357061493098069,1.60005874,-5.145096302974425,5.534758189219665,FallGuys,1877.009269,AA04021030
1877.02925,0.4546000000000001,0.5014000000000002,47.81000000000001,-15.530000000000005,508.0600000000001,3.4970000000000008,3.552000000000001,0.4118083783071999,9.278303152811326,-2.2071457506961183,1.15144414,-4.45225348100022,4.982360616610335,FallGuys,1877.02925,AA04021030
1877.049342,0.4556000000000001,0.4987000000000001,46.58000000000001,-13.810000000000002,506.2200000000001,3.4900000000000007,3.547000000000001,0.3956472936934,9.303065989076227,-2.266259168934183,1.98138115,-3.827777191270095,4.71967695076038,FallGuys,1877.049342,AA04021030
1877.069322,0.4596000000000001,0.4981000000000001,46.91000000000001,-14.850000000000003,561.6500000000001,3.487000000000001,3.444000000000001,0.2717456449876,9.556522055177652,-2.4125344794223027,5.33851374,-3.684582735184281,5.285468022163287,FallGuys,1877.069322,AA04021030
1877.089414,0.4593000000000001,0.4978000000000001,43.21000000000001,-13.450000000000005,513.9800000000001,3.4700000000000006,3.480000000000001,0.3178346640714,9.664892316179191,-2.469837418038661,7.49934073,-3.703519298030874,5.052530705158502,FallGuys,1877.089414,AA04021030
1877.109395,0.4610000000000001,0.4973000000000002,41.45000000000001,-13.090000000000003,514.0200000000001,3.4690000000000007,,0.2172768042522,9.743255666662586,-2.4063311219729875,9.30127604,-3.478105647135084,4.530692736670443,FallGuys,1877.109395,AA04021030
1877.129487,0.4607000000000001,0.4949000000000002,40.02000000000001,-11.170000000000002,492.7300000000001,3.4650000000000007,3.4770000000000008,0.158618052691,9.81011051773256,-2.4113625971581363,10.89385787,-3.8018034489590393,3.223586076138645,FallGuys,1877.129487,AA04021030
1877.149467,0.4613000000000001,0.4896000000000001,39.00000000000001,-7.9700000000000015,487.1800000000001,3.459000000000001,3.5220000000000007,0.1783704894412,9.842750295369044,-2.4305390133478264,11.25274955,-4.285170956927868,4.365906031459686,FallGuys,1877.149467,AA04021030
1877.169559,0.4611000000000001,0.4873000000000002,38.11000000000001,-6.450000000000001,473.49000000000007,3.4610000000000007,3.559000000000001,0.1280915595316,9.780952616327028,-2.4247466807634943,11.963056,-5.28040722553449,3.6754641006156152,FallGuys,1877.169559,AA04021030
1877.189539,0.4620000000000001,0.4875000000000001,37.71000000000001,-6.6400000000000015,478.8400000000001,3.459000000000001,3.5260000000000007,0.0263365823336,9.73917413841493,-2.365076130322347,12.32194768,-6.399940262078496,3.6229581558656223,FallGuys,1877.189539,AA04021030
1877.209631,0.4638000000000001,0.4796000000000001,37.46000000000001,-2.2200000000000006,499.3800000000001,3.4650000000000007,3.5620000000000007,-0.0407019908792,9.810203506458617,-2.315921150156921,12.24717858,-7.966168126463209,4.957227452447592,FallGuys,1877.209631,AA04021030
1877.229612,0.4638000000000001,0.4798000000000001,36.870000000000005,-2.28,491.2900000000001,3.467000000000001,3.5820000000000007,0.0317236105382,10.21054294655027,-2.197242956315209,7.90309387,-9.906436313701033,3.848498425989189,FallGuys,1877.229612,AA04021030
1877.249704,0.4645000000000001,0.4800000000000001,35.86000000000001,-2.4000000000000004,487.9000000000001,3.467000000000001,3.553000000000001,0.1334785877362,10.202003898291355,-2.165443313919344,3.08048692,-9.79114577545814,2.341066628113206,FallGuys,1877.249704,AA04021030
1877.269685,0.4643000000000001,0.4797000000000001,35.89000000000001,-2.2200000000000006,484.7600000000001,3.4660000000000006,3.5420000000000007,0.2076998652218,9.683949122026846,-2.21320552588702,-0.09719983,-8.594582516653393,0.0228631114806994,FallGuys,1877.269685,AA04021030
1877.289777,0.4641000000000001,0.4764000000000001,36.650000000000006,-0.3400000000000001,491.9600000000001,3.539000000000001,3.532000000000001,0.2669571754724,9.53764235291012,-2.3718056237327256,1.2710747,-7.081706951079957,-0.6273983229826408,FallGuys,1877.289777,AA04021030
1877.309757,0.4651000000000001,0.4794000000000001,35.42000000000001,-2.0500000000000003,490.1900000000001,3.488000000000001,3.4930000000000008,0.2759355558134,9.53950376383085,-2.46093125188815,4.56839201,-3.8760613608469408,1.0761326178440669,FallGuys,1877.309757,AA04021030
1877.32985,0.4646000000000001,0.4789000000000001,36.14000000000001,-1.7800000000000002,491.8800000000001,3.537000000000001,3.501000000000001,0.2160796868733999,9.734969087585782,-2.577746185262781,5.29365228,-1.677203107011873,1.495448889184551,FallGuys,1877.32985,AA04021030
1877.34983,0.4631000000000001,0.4784000000000001,35.870000000000005,-1.4400000000000004,469.1300000000001,3.528000000000001,3.540000000000001,,,,,,,FallGuys,1877.34983,AA04021030
1877.369922,0.4636000000000001,0.4788000000000001,36.07000000000001,-1.6900000000000004,478.3700000000001,3.5220000000000007,3.519000000000001,0.0353149626746,9.453560185898032,-2.491005916676134,2.34027283,1.835549967584214,0.3283729648564469,FallGuys,1877.369922,AA04021030
1877.389902,0.4642000000000001,0.4802000000000001,35.690000000000005,-2.4500000000000006,480.6500000000001,3.529000000000001,3.539000000000001,-0.0263365823336,9.308355695229285,-2.4313809981347987,2.25802682,2.5757370846313887,-0.432830613448863,FallGuys,1877.389902,AA04021030
1877.409994,0.4661000000000001,0.4817000000000001,35.050000000000004,-3.4100000000000006,499.8900000000001,3.521000000000001,3.528000000000001,-0.0502789299096,9.17338423418531,-2.34088691146467,3.98519303,3.227276714056122,-0.640115180861184,FallGuys,1877.409994,AA04021030
1877.429975,0.4696000000000001,0.4854000000000001,30.020000000000007,-5.350000000000001,478.1500000000001,3.5260000000000007,3.540000000000001,-0.038906314811,9.06930452602674,-2.249003968836243,6.63201917,4.026536239719482,-1.1234049394336858,FallGuys,1877.429975,AA04021030
1877.450066,0.4723000000000001,0.4853000000000002,27.370000000000005,-5.270000000000001,480.2600000000001,3.5380000000000007,3.509000000000001,,,,,,,FallGuys,1877.450066,AA04021030
1877.470047,0.4777000000000002,0.4992000000000001,21.340000000000003,-12.760000000000003,470.1600000000001,3.5620000000000007,3.640000000000001,-0.7164747512118,8.165984800169015,-2.1775478023498547,18.32590641,3.722576704192269,0.791039228372757,FallGuys,1877.470047,AA04021030
1877.490139,,,,,,,,-0.9918117483358,7.805813509091076,-2.08997627239458,28.19542761,0.1737756071663219,4.8093262912367605,FallGuys,1877.490139,AA04021030
1877.510119,,,,,,,,-1.1504298010268,7.425223977976421,-1.9919454028618195,46.14748852,-6.370697727616783,6.781337200421994,FallGuys,1877.510119,AA04021030
1877.53021,,,,,,,,-1.2647545107022,7.679434677304642,-1.9878461268701737,57.7965143,-11.482777332902714,7.508677726977525,FallGuys,1877.53021,AA04021030
1877.550191,,,,,,,,,,,,,,FallGuys,1877.550191,AA04021030
1877.570283,,,,,,,,-1.0211411241164,8.57033376423237,-3.2952102422971072,71.21009083999999,-25.710277127168823,14.691134360993498,FallGuys,1877.570283,AA04021030
1877.590263,,,,,,,,-0.7948859395232,8.417538909702358,-3.524639095076594,74.95602275,-30.35980709303293,16.443817372417577,FallGuys,1877.590263,AA04021030
1877.610354,,,,,,,,-0.4124069369965999,9.404255310774976,-3.972413250118496,79.26272291,-34.725979471466786,17.371876002519237,FallGuys,1877.610354,AA04021030
1877.630336,0.5007000000000001,1.0342000000000002,-5.140000000000001,-266.64000000000004,399.25000000000006,,3.541000000000001,0.1969258088126,10.633872337559282,-4.604606523432586,72.75033429999999,-35.284102929793995,17.299410095109472,FallGuys,1877.630336,AA04021030
1877.650428,0.5298000000000002,1.0382000000000002,-15.010000000000003,-134.46000000000004,200.20000000000005,3.4620000000000006,3.6710000000000007,0.4483204583606,10.59429277937726,-4.888696573838096,53.31784521,-30.473420694199515,13.46389487397299,FallGuys,1877.650428,AA04021030
1877.670408,0.5255000000000002,0.9938000000000003,-13.260000000000003,-126.47000000000004,204.63000000000005,3.672000000000001,,0.5291258814295999,9.72577453047169,-5.056559481547409,42.72306374,-26.37735057545608,11.660686519854895,FallGuys,1877.670408,AA04021030
1877.6905,0.5235000000000002,1.0193000000000003,-12.370000000000005,-131.29000000000002,202.30000000000004,3.463000000000001,4.033000000000001,0.670385732128,10.325812816309751,-5.668138863347421,32.95821928,-19.724264014477782,8.11386758157759,FallGuys,1877.6905,AA04021030
1877.710481,0.5320000000000001,0.9027000000000004,-16.290000000000003,-107.83000000000004,212.45000000000005,3.987000000000001,,0.6775684364008,10.172233132464184,-5.524123077913654,23.35786684,-14.816149757929402,7.254070411451472,FallGuys,1877.710481,AA04021030
1877.730572,0.5266000000000002,0.8973000000000003,-13.890000000000002,-106.87000000000002,213.28000000000003,3.955000000000001,,0.5171547076416,9.98975550310742,-5.323174583841322,14.58745141,-10.271100544309606,7.41929473347531,FallGuys,1877.730572,AA04021030
1877.750554,0.5198000000000002,0.8319000000000003,-10.820000000000002,-92.52000000000002,219.06000000000003,4.319000000000001,4.497000000000001,0.254387442995,9.577968168926622,-5.066753565831345,4.52353055,-5.204279559772125,6.58691499454758,FallGuys,1877.750554,AA04021030
1877.770645,0.5271000000000001,0.8749000000000002,-14.130000000000004,-101.97,215.11000000000004,3.924000000000001,,0.0993607424404,9.284238979127242,-5.037975693048777,-0.40375314,-3.010715350754832,5.470922873041374,FallGuys,1877.770645,AA04021030
1877.790626,0.5340000000000001,0.8472000000000003,-17.880000000000003,-98.73000000000002,224.16000000000005,3.830000000000001,4.282000000000001,-0.1023535358874,8.892646687116637,-4.859278965778064,-4.17211578,-1.3424522758670734,4.328995883922276,FallGuys,1877.790626,AA04021030
1877.810718,,,,,,,,-0.1759762546835999,8.718574784792128,-4.584237739008303,-5.35346756,-1.4749808929210113,4.892242117228347,FallGuys,1877.810718,AA04021030
1877.830699,0.4412000000000001,0.7425000000000003,26.81000000000001,-72.03000000000002,226.63000000000005,,4.596000000000001,-0.2777312318816,8.562839625803276,-4.375511054076245,-5.57029795,-1.974707026854408,6.13741053832853,FallGuys,1877.830699,AA04021030
1877.850791,0.4366000000000001,0.7861000000000002,28.530000000000005,-82.99000000000001,224.06000000000003,,4.305000000000001,-0.2699499689194,8.574769286493517,-4.233019170753864,-5.36094447,-3.946641743335976,7.756658156979984,FallGuys,1877.850791,AA04021030
1877.870771,0.5153000000000002,0.7085000000000002,-7.000000000000002,-51.25000000000001,186.81000000000003,5.824000000000002,4.846000000000001,,,,,,,FallGuys,1877.870771,AA04021030
1877.890864,,,,,,,,-0.188545987161,8.340808935260553,-3.969113563720122,-2.73654906,-6.757822108370823,7.513358665922991,FallGuys,1877.890864,AA04021030
1877.910844,0.5799000000000002,0.7973000000000002,-31.780000000000005,-68.47000000000001,180.64000000000004,3.850000000000001,4.947000000000001,-0.158618052691,8.266518239152822,-3.967396997597648,-0.14206129,-7.666712484129572,7.660685595959676,FallGuys,1877.910844,AA04021030
1877.930936,0.5799000000000002,0.8954000000000003,-30.520000000000007,-85.20000000000002,171.34000000000003,3.665000000000001,,-0.0161610846138,8.544123316231243,-4.155521189967311,4.67306875,-8.27942178561832,7.439299346746218,FallGuys,1877.930936,AA04021030
1877.950916,0.5950000000000002,0.8280000000000003,-36.290000000000006,-72.31000000000002,173.97000000000003,4.054000000000001,,0.0808054230689999,8.701377077932268,-4.296646339701419,6.28808131,-8.12693320590461,7.437462691656942,FallGuys,1877.950916,AA04021030
1877.971008,0.5692000000000002,0.8510000000000003,-27.31000000000001,-78.53000000000002,176.90000000000003,3.810000000000001,4.068000000000001,,,,,,,FallGuys,1877.971008,AA04021030
1877.99099,,,,,,,,0.1245002073952,8.794369910340825,-4.509782725431899,6.983433939999999,-4.990173733345395,6.58726908605136,FallGuys,1877.99099,AA04021030
1878.01108,0.5699000000000002,0.8394000000000003,-27.620000000000005,-76.28000000000002,177.41000000000005,3.881000000000001,4.306000000000001,0.1783704894412,8.939277224700826,-4.516106493376508,6.94604939,-3.5699730570767345,6.400055329480323,FallGuys,1878.01108,AA04021030
1878.031062,0.5822000000000002,0.8510000000000003,-31.860000000000007,-77.68000000000002,175.10000000000002,3.835000000000001,,0.2256566259037999,9.529360984705695,-4.745560918378881,3.17020984,-0.1343106263987878,4.798372558271481,FallGuys,1878.031062,AA04021030
1878.051153,0.5940000000000002,0.8829000000000002,-35.510000000000005,-82.27000000000001,170.73000000000005,3.749000000000001,,0.1837575176458,9.452666381131948,-4.806974194171898,-2.10848862,2.3638766505421414,3.892812953013452,FallGuys,1878.051153,AA04021030
1878.071134,,,,,,,,,,,,,,FallGuys,1878.071134,AA04021030
1878.091225,,,,,,,,0.1759762546835999,9.561038829446504,-4.688653444196537,-11.24527264,7.143633638685621,2.968571580057048,FallGuys,1878.091225,AA04021030
1878.111206,,,,,,,,0.2472047387222,10.083331039941946,-4.776416713389724,-17.28661592,9.252754807514693,2.390316889231152,FallGuys,1878.111206,AA04021030
1878.131297,,,,,,,,0.2466061800328,9.747667928633785,-4.720367584578576,-29.0104108,12.40559078801805,1.292099759704635,FallGuys,1878.131297,AA04021030
1878.151279,,,,,,,,0.1502382310393999,9.238408119663152,-4.398557199598756,-33.37692624,13.49901768711025,0.3946611553816472,FallGuys,1878.151279,AA04021030
1878.171371,0.4676000000000001,0.4895000000000001,12.920000000000002,-3.1000000000000005,192.90000000000003,1.4110000000000005,,0.0831996578266,8.7890243112562,-3.754747677867475,-33.73581792,13.746155982271734,0.9460022293926116,FallGuys,1878.171371,AA04021030
1878.191352,0.4348000000000001,0.3396000000000001,25.840000000000003,29.910000000000007,186.18000000000004,3.3040000000000007,3.6070000000000007,-0.0742212774856,8.625714224217134,-3.4146815523198666,-31.29086835,13.793998315815188,-0.1954713718671423,FallGuys,1878.191352,AA04021030
1878.211444,0.4316000000000001,0.3505000000000001,27.090000000000007,27.47000000000001,186.25000000000003,3.539000000000001,3.5180000000000007,-0.191538780608,8.529488872673536,-3.294483493226137,-27.69447464,13.566189549702235,-1.698770695792254,FallGuys,1878.211444,AA04021030
1878.231425,0.4664000000000001,0.3743000000000001,14.320000000000002,24.100000000000005,200.34000000000003,3.589000000000001,3.3770000000000007,-0.341178452958,8.483492895587515,-3.1366194807099834,-20.38205666,12.678819449585076,-2.565019262382738,FallGuys,1878.231425,AA04021030
1878.251517,0.4683000000000001,0.3688000000000001,20.770000000000003,38.970000000000006,307.1600000000001,3.399000000000001,3.404000000000001,-0.320228898829,8.87630085221575,-3.165651547601089,-16.33704835,11.597690675989927,-2.4728093127632578,FallGuys,1878.251517,AA04021030
1878.271498,0.4674000000000001,0.3847000000000001,21.280000000000005,33.24000000000001,307.83000000000004,,3.583000000000001,-0.3345943073746,9.266311624256966,-3.2222378735583144,-15.61926499,10.279060270539018,-0.549076797241896,FallGuys,1878.271498,AA04021030
1878.291588,0.4710000000000001,0.3977000000000001,27.760000000000005,41.86000000000001,451.7300000000001,3.436000000000001,3.404000000000001,-0.3118490771773999,9.196452751317684,-3.1449719645102734,-16.39686363,9.707084149645912,0.1763724284799332,FallGuys,1878.291588,AA04021030
1878.31157,0.4810000000000001,0.4018000000000001,15.970000000000002,34.96000000000001,396.9600000000001,3.4730000000000008,3.531000000000001,-0.197524367502,9.151239754000873,-2.8538734545162145,-17.15950845,8.938207182351931,1.2341442713442152,FallGuys,1878.31157,AA04021030
1878.331662,0.4845000000000001,0.4116000000000001,13.030000000000005,30.480000000000008,397.68000000000006,,3.443000000000001,-0.0945722729252,9.248779520673954,-2.7577273808140537,-17.39129266,8.755153222603976,2.350850351770956,FallGuys,1878.331662,AA04021030
1878.351642,0.4831000000000001,0.4228000000000001,17.620000000000005,31.390000000000008,496.1300000000001,3.4730000000000008,3.5060000000000007,-0.0395048735004,9.203743289170594,-2.851570947261657,-17.20436991,8.696357156095244,3.80041018659582,FallGuys,1878.351642,AA04021030
1878.371734,0.4846000000000001,0.4285000000000001,16.900000000000002,29.570000000000007,522.8000000000001,3.480000000000001,3.512000000000001,-0.1388656159408,9.034692725619395,-2.832160272020434,-15.53701898,9.3423148467688,3.494940764610896,FallGuys,1878.371734,AA04021030
1878.391715,0.4840000000000001,0.4301000000000001,18.81,30.680000000000007,560.8300000000002,3.501000000000001,3.568000000000001,-0.3094548424198,8.917212110884657,-2.7515032881544768,-13.58554547,9.377576936794776,3.0135207599128586,FallGuys,1878.391715,AA04021030
1878.411807,0.4820000000000001,0.4455000000000001,31.270000000000007,30.460000000000004,837.4300000000002,3.4820000000000007,3.6180000000000008,-0.2711470862982,9.315930623279495,-2.562720438750348,-12.09764038,7.8556173921305215,4.735865863578696,FallGuys,1878.411807,AA04021030
1878.431787,0.4514000000000001,0.5272000000000001,43.48000000000001,-26.500000000000004,433.43000000000006,3.535000000000001,3.475000000000001,-0.2771326731922,9.126826750270167,-2.551285917779153,-11.70136415,6.721982673785379,5.947608849742183,FallGuys,1878.431787,AA04021030
1878.451879,0.4510000000000001,0.5314000000000002,46.39000000000001,-30.350000000000005,459.0400000000001,3.519000000000001,3.537000000000001,-0.2226638324568,8.880736125237057,-2.485515259646503,-9.31622986,5.485394417392554,6.890765238585942,FallGuys,1878.451879,AA04021030
1878.471861,0.4546000000000001,0.5423000000000002,49.50000000000001,-41.84000000000001,530.0900000000001,3.527000000000001,3.531000000000001,-0.2388249170706,8.844916947077571,-2.3891716849206293,-4.35156162,4.146815601107822,5.088490983058749,FallGuys,1878.471861,AA04021030
1878.491951,0.4531000000000001,0.5405000000000002,51.63000000000001,-41.150000000000006,535.5000000000001,3.509000000000001,3.568000000000001,-0.2801254666391999,8.830752071016024,-2.3176245924012844,-1.06172122,3.044775438523077,3.9315382086809008,FallGuys,1878.491951,AA04021030
1878.511932,0.4537000000000001,0.5438000000000002,50.90000000000001,-43.150000000000006,534.4000000000001,3.508000000000001,3.6020000000000008,-0.7068978121813999,8.796021922806485,-2.2478255246330203,3.88051629,0.10067349023235,5.43638051784891,FallGuys,1878.511932,AA04021030
1878.532024,0.4560000000000001,0.5397000000000002,53.30000000000001,-44.67000000000001,589.3400000000001,3.512000000000001,3.539000000000001,-0.8978380341000001,8.978840973212042,-2.225491830290356,7.47691,-3.637039847400183,8.74571515200938,FallGuys,1878.532024,AA04021030
1878.552005,0.4547000000000001,0.5371000000000001,53.35000000000001,-41.64000000000001,572.6500000000001,3.5180000000000007,3.6100000000000008,-1.0103670677072,9.208643168055517,-2.37653024858388,11.71631797,-8.112909273499799,8.114793241727865,FallGuys,1878.552005,AA04021030
1878.572097,0.4593000000000001,0.5348000000000002,67.46000000000001,-56.46000000000001,807.5600000000002,3.577000000000001,3.346000000000001,-1.295879562551,9.409618746130418,-2.640155964666276,13.36871508,-11.200764138004224,7.181195766793502,FallGuys,1878.572097,AA04021030
1878.592077,0.5157000000000002,0.5230000000000001,-139.53000000000003,-217.89000000000004,4027.2000000000007,3.1150000000000007,3.4370000000000007,-1.690928297555,9.84903074334678,-2.815554605845126,13.83976041,-17.25954682308469,10.39530489763939,FallGuys,1878.592077,AA04021030
1878.61217,0.6135000000000002,0.5263000000000002,-51.31000000000001,-11.720000000000002,213.09000000000003,4.025000000000001,3.748000000000001,-1.3060550602708,10.102138701840436,-2.903010562317732,10.88638096,-28.597536288134584,17.506297477099537,FallGuys,1878.61217,AA04021030
1878.63215,0.5768000000000002,0.5323000000000002,-78.98000000000002,-30.540000000000006,483.5200000000001,3.537000000000001,3.722000000000001,-0.870902893077,9.981495971940094,-2.8314723436703813,8.64330796,-34.485773283501224,19.904473239511876,FallGuys,1878.63215,AA04021030
1878.652242,0.5605000000000002,0.5096000000000002,-87.53000000000002,-25.100000000000005,680.1900000000002,3.5820000000000007,3.736000000000001,-0.0849953338948,9.905538716235744,-2.656225109228844,8.19469336,-38.38856543949823,16.934994883736138,FallGuys,1878.652242,AA04021030
1878.672223,0.5493000000000001,0.5134000000000002,-96.41000000000004,-38.190000000000005,916.7800000000002,3.5740000000000007,3.625000000000001,0.2849139361543999,9.99655052738153,-2.5562437522887445,7.04324922,-37.39617767396811,13.97987878082273,FallGuys,1878.672223,AA04021030
1878.692314,0.5436000000000002,0.5109000000000001,-94.10000000000002,-39.330000000000005,1011.1000000000004,3.5950000000000006,3.6220000000000008,0.5794048113392,10.049418993129834,-2.5723767388817,5.33851374,-34.78700937848705,11.330840986546242,FallGuys,1878.692314,AA04021030
1878.712295,0.5389000000000002,0.5156000000000002,-64.66000000000001,-34.60000000000001,776.1100000000001,3.5940000000000007,3.584000000000001,0.9415328184262,9.827610237913788,-2.5276775538010967,2.07858098,-28.73356538883549,9.134511799761746,FallGuys,1878.712295,AA04021030
1878.732387,0.5306000000000002,0.5173000000000002,-46.12000000000001,-32.84,700.4200000000002,3.580000000000001,3.555000000000001,1.008571391639,9.619479630525651,-2.487721541468892,1.00938285,-23.728853913568543,7.650310313388855,FallGuys,1878.732387,AA04021030
1878.752367,0.5264000000000002,0.5170000000000001,-42.87000000000001,-35.040000000000006,750.6600000000002,3.565000000000001,3.5540000000000007,1.1366629511706,9.266783592212892,-2.344829356699871,1.92156587,-15.847068405636152,6.036136599884811,FallGuys,1878.752367,AA04021030
1878.772459,0.5240000000000001,0.5184000000000002,-37.05,-34.43000000000001,711.1700000000002,3.577000000000001,3.569000000000001,0.9259702925018,9.136688625143972,-2.346549497295127,2.81879507,-10.6135189885301,4.801408102233162,FallGuys,1878.772459,AA04021030
1878.79244,0.5209000000000001,0.5093000000000002,-42.18000000000001,-35.10000000000001,929.23,3.464000000000001,3.676000000000001,0.9139991187138,8.966885615678995,-2.301889719941949,5.82451289,-4.277923632926328,3.141333782543481,FallGuys,1878.79244,AA04021030
1878.812531,0.4672000000000001,0.5135000000000002,49.71000000000001,-32.75000000000001,737.7400000000001,3.322000000000001,4.006000000000001,1.1390571859282,8.914888743799917,-2.408328166053314,9.38352205,-0.054801763611588,0.9289223119018708,FallGuys,1878.812531,AA04021030
1878.832513,0.3445000000000001,0.5498000000000002,117.56000000000002,-33.080000000000005,360.2800000000001,3.513000000000001,3.8320000000000007,1.5969545833192,8.989335345890916,-2.504315221686011,13.32385362,7.076595727927047,-2.597261579493294,FallGuys,1878.832513,AA04021030
1878.852604,0.3593000000000001,0.5396000000000002,207.84000000000003,-55.79000000000001,704.6200000000001,3.650000000000001,3.6190000000000007,1.565230972781,9.510120014859195,-2.590534191324219,16.69594003,21.26688592889639,-8.120716163464213,FallGuys,1878.852604,AA04021030
1878.872585,0.3642000000000001,0.5383000000000002,197.20000000000005,-53.65000000000001,693.2800000000001,3.649000000000001,3.613000000000001,1.3401729055666,9.598623406241302,-2.591600174130966,15.8510492,29.31790005688305,-7.859873371923847,FallGuys,1878.872585,AA04021030
1878.892676,0.3756000000000001,0.5312000000000001,217.41000000000005,-57.28000000000001,834.9600000000002,3.6430000000000007,3.564000000000001,0.849953338948,9.719170035329393,-2.680863960525672,12.1125942,37.50679726839883,-3.821652112579623,FallGuys,1878.892676,AA04021030
1878.912657,0.3513000000000001,0.5418000000000002,100.71000000000002,-26.510000000000005,322.77000000000004,3.638000000000001,4.042000000000001,0.8313980195766,9.627436774511846,-2.723782399686744,8.972292,41.727644865811214,-2.4485682591079296,FallGuys,1878.912657,AA04021030
1878.932749,0.3641000000000001,0.5510000000000002,86.56000000000002,-28.140000000000004,304.2800000000001,3.519000000000001,3.909000000000001,0.421983876027,9.53615348390012,-2.836556599700905,7.03577231,47.79540068180098,-5.404690434095589,FallGuys,1878.932749,AA04021030
1878.95273,0.3814000000000001,0.5510000000000002,75.39000000000001,-27.960000000000004,304.2900000000001,3.5060000000000007,3.8600000000000008,0.0796083056902,9.446221828832288,-2.856604609759824,6.54977316,49.36911333759653,-5.265268584543891,FallGuys,1878.95273,AA04021030
1878.972822,0.3950000000000001,0.5556000000000002,65.89000000000001,-29.180000000000007,301.1700000000001,3.508000000000001,3.762000000000001,-0.2190724803204,9.322306709682897,-2.8033406795775035,6.841372649999999,48.30281597576931,-3.08941316993591,FallGuys,1878.972822,AA04021030
1878.992802,0.4314000000000001,0.5383000000000002,89.36000000000001,-47.14000000000001,628.1900000000002,3.509000000000001,3.491000000000001,-0.50877488599,9.615557582734043,-2.7451227025051232,6.9535263,42.982765167022734,1.1907054288037866,FallGuys,1878.992802,AA04021030
1879.012894,0.4353000000000001,0.5345000000000002,81.34000000000002,-42.64000000000001,606.4300000000001,3.5500000000000007,3.532000000000001,-0.637465004211,9.571213529586853,-2.6255495298843137,6.16097384,38.12485526044977,2.322657434159642,FallGuys,1879.012894,AA04021030
1879.032875,0.4372000000000001,0.4721000000000001,82.61000000000001,2.2300000000000004,629.5000000000001,3.4970000000000008,3.593000000000001,-0.8254124326826,9.65981567148082,-2.5599360402747764,5.13663717,29.511972390474,2.04365246035062,FallGuys,1879.032875,AA04021030
1879.052966,0.4158000000000001,0.3826000000000001,88.04000000000002,53.87000000000001,494.2700000000001,3.4650000000000007,3.697000000000001,-0.7763306201518,9.745674672172989,-2.605110892404006,3.14777911,23.16132970265224,2.697923968757366,FallGuys,1879.052966,AA04021030
1879.072948,0.4224000000000001,0.3628000000000001,97.17000000000002,78.32000000000002,590.4100000000001,3.540000000000001,3.585000000000001,-0.5997558067788,9.6063422543166,-2.6330163711640897,0.91965993,17.858501201670446,2.5638234868956564,FallGuys,1879.072948,AA04021030
1879.093039,0.4250000000000001,0.3574000000000001,103.04000000000002,90.11,647.4600000000002,3.5950000000000006,3.571000000000001,-0.547681200801,9.174663740833326,-2.6342737554420808,0.35141477,11.7537963634451,3.548016721314723,FallGuys,1879.093039,AA04021030
1879.11302,0.4271000000000001,0.3548000000000001,93.52000000000002,86.01000000000002,604.4800000000001,3.630000000000001,3.581000000000001,-0.481839744967,9.071704521253311,-2.6637912880269825,2.37018047,7.526331875642412,4.912872944890176,FallGuys,1879.11302,AA04021030
1879.133112,0.4292000000000001,0.3557000000000001,91.47,86.01000000000002,608.6000000000001,3.6630000000000007,3.5620000000000007,-0.4477218996712,9.51165325322916,-2.658172484549988,5.36842138,0.5838581765363131,5.983412072157114,FallGuys,1879.133112,AA04021030
1879.153092,0.4285000000000001,0.3579000000000001,87.29000000000002,79.76000000000002,575.0700000000002,3.6630000000000007,3.5900000000000007,-0.4417363127772,9.746025429480364,-2.6149763417505896,5.22636009,-3.911124858161787,5.226605758084179,FallGuys,1879.153092,AA04021030
1879.173185,0.4429000000000001,0.2966000000000001,54.55000000000001,94.35000000000002,444.9700000000001,3.535000000000001,3.6470000000000007,-0.5159575902628,10.10315282857498,-2.555649399671255,2.71411833,-10.345352680284533,3.689542678764852,FallGuys,1879.173185,AA04021030
1879.193165,0.4537000000000001,0.2833000000000001,62.67000000000001,142.76000000000002,625.6900000000002,3.555000000000001,3.579000000000001,-0.1879474284716,10.417648366018843,-2.6537059660468225,-1.30845925,-14.216954798549033,2.700861322198473,FallGuys,1879.193165,AA04021030
1879.213257,0.4550000000000001,0.2809000000000001,46.36000000000001,110.03000000000002,476.1500000000001,3.638000000000001,3.6070000000000007,-0.164603639585,10.176892154265428,-2.6031435820258557,-6.63201917,-15.286980116299226,0.184124672699919,FallGuys,1879.213257,AA04021030
1879.233237,0.4551000000000001,0.2851000000000001,44.510000000000005,103.63000000000002,458.3400000000001,3.6630000000000007,3.604000000000001,-0.128690118221,9.698462568082752,-2.470241756344669,-9.71250609,-15.45077074456902,-0.8741452086348449,FallGuys,1879.233237,AA04021030
1879.25333,0.4515000000000001,0.2940000000000001,51.44000000000001,106.0,492.4500000000001,3.6270000000000007,3.596000000000001,-0.152632465797,9.650699093575232,-2.381150236517458,-10.31065889,-15.75603579792984,0.566651639817795,FallGuys,1879.25333,AA04021030
1879.27331,0.4499000000000001,0.3046000000000001,56.70000000000001,106.74000000000002,526.8100000000001,3.6390000000000007,3.5380000000000007,-0.1274930008422,9.573992041656709,-2.131699995295034,-10.86395023,-15.375318163029029,3.07702619407426,FallGuys,1879.27331,AA04021030
1879.293401,0.4473000000000001,0.3108000000000001,65.10000000000001,112.40000000000002,575.7200000000001,3.654000000000001,3.5580000000000007,,,,,,,FallGuys,1879.293401,AA04021030
1879.313382,0.4663000000000001,0.3373000000000001,62.26000000000001,141.18000000000004,859.8700000000001,3.299000000000001,3.2080000000000006,-0.2729427623664,9.171510374919803,-1.940897766293806,-11.28265719,-14.75448786060524,4.703172821136447,FallGuys,1879.313382,AA04021030
1879.333475,0.5082000000000002,0.3417000000000001,-8.170000000000002,82.90000000000002,517.5200000000001,3.543000000000001,3.748000000000001,-0.3687121526704,9.114861931858622,-1.5855635614634953,-6.63201917,-15.945187062638375,7.264736250483348,FallGuys,1879.333475,AA04021030
1879.353455,0.5067000000000002,0.3540000000000001,-6.660000000000001,75.51000000000002,518.6300000000001,,3.6220000000000008,-0.3208274575184,9.295724857690958,-1.871839158481132,-4.46371527,-17.33454601676534,8.064554236274592,FallGuys,1879.353455,AA04021030
1879.373546,0.5042000000000002,0.3586000000000001,-4.130000000000001,76.44000000000001,545.9800000000001,3.507000000000001,3.6020000000000008,-1.1564153879208,9.680551360649954,-1.9787257252519663,-3.27488658,-21.947718519306957,9.305008619644122,FallGuys,1879.373546,AA04021030
1879.393527,0.5007000000000001,0.3623000000000001,-0.24,82.29000000000002,607.3400000000001,3.4890000000000008,3.628000000000001,-1.6005459354556002,10.32639594702922,-1.9256937421882407,-5.48805194,-30.10732432652956,14.39507990595127,FallGuys,1879.393527,AA04021030
1879.413618,0.4863000000000002,0.3751000000000001,17.150000000000002,69.54000000000002,579.8900000000001,3.5500000000000007,3.553000000000001,-1.4928053713636,11.180309148312592,-1.976245402790864,-16.87538587,-45.08681554408973,13.688299339409204,FallGuys,1879.413618,AA04021030
1879.4336,0.4753000000000001,0.3930000000000001,30.120000000000005,56.58000000000001,575.0400000000001,3.563000000000001,3.4180000000000006,-1.0133598611542,10.852646163190832,-2.3086370496231465,-28.89825715,-53.37890953697544,8.265526684111263,FallGuys,1879.4336,AA04021030
1879.453692,0.4648000000000001,0.4143000000000001,45.64000000000001,44.87000000000001,615.8900000000001,3.4010000000000007,3.410000000000001,-0.4465247822924,10.017753472113885,-2.131175121873814,-36.57704372,-57.93192425273763,2.812383022269892,FallGuys,1879.453692,AA04021030
1879.473672,0.4489000000000001,0.4305000000000001,59.48000000000001,29.460000000000004,553.9300000000001,3.508000000000001,3.431000000000001,0.5841932808544,9.247839585528384,-1.7343792127304862,-36.59199754,-57.470419560088224,-0.2668528028290104,FallGuys,1879.473672,AA04021030
1879.493764,0.4412000000000001,0.4439000000000001,74.56000000000002,22.430000000000003,604.7200000000001,3.487000000000001,3.391000000000001,1.1719779138452,9.075987338144213,-1.2847975655331525,-31.81425205,-50.54497957116907,-0.1948229555396672,FallGuys,1879.493764,AA04021030
1879.513745,0.4316000000000001,0.4553000000000001,92.21000000000002,14.970000000000002,643.7300000000001,3.483000000000001,3.370000000000001,1.5544569163717998,9.18458517163831,-0.9235881758042904,-24.73361828,-34.058797837525674,0.4439509461750717,FallGuys,1879.513745,AA04021030
1879.533837,0.4265000000000001,0.4611000000000001,97.87000000000002,10.300000000000002,636.0900000000001,3.456000000000001,3.3890000000000007,1.4592860847572,8.934508656783203,-0.6721671743508545,-20.3371952,-22.02877458655736,1.4795463136069764,FallGuys,1879.533837,AA04021030
1879.553817,0.4230000000000001,0.4713000000000001,88.21000000000002,2.2300000000000004,547.6800000000001,3.4620000000000006,3.394000000000001,1.0666315845108,8.904453002279048,-0.3702160476583137,-11.32751865,-7.128189121045377,5.375337502310034,FallGuys,1879.553817,AA04021030
1879.57391,0.4219000000000001,0.4767000000000002,86.28000000000002,-1.2500000000000002,528.0900000000001,3.468000000000001,3.3890000000000007,0.5195489423992,9.34667900705324,-0.4776765696030442,-6.99091085,0.319896315724965,7.079095915412745,FallGuys,1879.57391,AA04021030
1879.59389,0.4224000000000001,0.4789000000000001,92.24000000000002,-2.8000000000000007,568.4300000000001,3.468000000000001,3.3770000000000007,0.0760169535537999,9.536578308176551,-0.666740110111773,-5.15159099,3.95015222211624,8.119076995251076,FallGuys,1879.59389,AA04021030
1879.613981,0.4199000000000001,0.4820000000000001,85.85000000000002,-4.470000000000001,512.8900000000001,3.451000000000001,3.4730000000000008,-0.3118490771773999,9.447947357353586,-0.5885437267966612,-3.29731731,4.820854255376188,6.749191517139351,FallGuys,1879.613981,AA04021030
1879.633963,0.4230000000000001,0.4881000000000001,87.64000000000001,-8.630000000000003,544.6200000000001,3.4570000000000007,3.432000000000001,-0.4513132518075999,9.250895676616643,-0.5741959853691937,-1.03929049,3.6631328763333775,5.474127024314319,FallGuys,1879.633963,AA04021030
1879.654055,0.4246000000000001,0.4912000000000001,87.10000000000002,-10.740000000000002,553.3200000000002,3.4130000000000007,3.406000000000001,-0.4004357632085999,9.429992367567325,-0.5002808186384714,3.40947096,1.0819304770452989,2.8964035617139765,FallGuys,1879.654055,AA04021030
1879.674035,0.4264000000000001,0.4932000000000001,87.58000000000001,-12.390000000000002,570.0300000000001,3.415000000000001,3.371000000000001,-0.2831182600862,9.529713306226498,-0.5349396381053904,5.54786722,-0.133452720511551,2.0693005398650968,FallGuys,1879.674035,AA04021030
1879.694126,0.4269000000000001,0.4970000000000001,86.62000000000002,-14.900000000000002,568.4200000000001,3.4090000000000007,3.3480000000000008,-0.1903416632292,9.201322184874003,-0.5281668247281359,7.89561696,-0.739202591932161,2.060465580009522,FallGuys,1879.694126,AA04021030
1879.714108,0.4201000000000001,0.4949000000000002,90.75,-13.060000000000002,544.3000000000001,3.4380000000000006,3.476000000000001,-0.1298872355998,9.7680394512845,-0.4558680864482692,14.97625073,-0.3131097121884059,1.763510125161582,FallGuys,1879.714108,AA04021030
1879.734199,0.4197000000000001,0.4965000000000001,86.79000000000002,-13.430000000000003,517.8600000000001,3.4090000000000007,3.451000000000001,-0.1658007569637999,9.92628303003703,-0.5635474316334819,15.29028095,0.394990586540865,2.7213713065455,FallGuys,1879.734199,AA04021030
1879.75418,0.4213000000000001,0.4841000000000001,85.19000000000001,-5.800000000000001,518.1500000000001,3.3930000000000007,,-0.2448105039646,9.827436334946691,-0.6025061402019528,14.64726669,1.68050499794772,3.770529885917235,FallGuys,1879.75418,AA04021030
1879.774271,0.4228000000000001,0.4838000000000002,83.66000000000001,-5.580000000000001,518.3300000000002,3.3490000000000006,,-0.176574813373,9.82855417382564,-0.7728605200842112,12.85280829,2.61024056512569,3.64934796803052,FallGuys,1879.774271,AA04021030
1879.794253,0.4249000000000001,0.4853000000000002,85.86000000000001,-6.850000000000001,547.3800000000001,3.363000000000001,3.427000000000001,-0.296286551253,9.474563193053816,-0.7569747032741508,11.20041118,4.261934869511802,2.1058135019802515,FallGuys,1879.794253,AA04021030
1879.814344,0.4245000000000001,0.4827000000000001,82.17000000000002,-4.880000000000001,520.94,3.382000000000001,3.505000000000001,-0.3729020634962,9.78029648437225,-0.8904965784156331,12.39671678,4.273203819282699,2.554411182480612,FallGuys,1879.814344,AA04021030
1879.834325,0.4255000000000001,0.4793000000000001,82.01000000000002,-2.8000000000000007,527.0200000000001,3.404000000000001,3.4900000000000007,-0.4944094774444,9.423177034376453,-0.8029618064881769,12.02287128,3.270858397728264,3.9522783278315816,FallGuys,1879.834325,AA04021030
1879.854416,0.4261000000000001,0.4748000000000001,82.58000000000001,-0.01,534.4200000000001,3.4170000000000007,3.496000000000001,-0.4860296557928,9.634893105520026,-0.5842212529384965,14.206129,1.764200980430217,4.631793848582586,FallGuys,1879.854416,AA04021030
1879.874397,0.4251000000000001,0.4734000000000001,79.05000000000001,0.8300000000000002,504.6400000000001,3.415000000000001,3.536000000000001,-0.424976669474,9.550788353751326,-0.7150434314649758,14.83418944,0.9638849561684912,4.175102490019398,FallGuys,1879.874397,AA04021030
1879.894489,0.4268000000000001,0.4683000000000001,78.32000000000002,3.960000000000001,511.6300000000001,3.407000000000001,3.495000000000001,-0.4680728951108,10.123138134523437,-0.9645936857390992,15.14074275,0.2994887411188259,3.314966999435763,FallGuys,1879.894489,AA04021030
1879.91447,0.4276000000000001,0.4685000000000001,76.46000000000001,3.7800000000000007,504.6800000000001,3.406000000000001,3.479000000000001,-0.5201475010886,10.159106994493802,-0.999775991467476,13.29394598,-0.503903258495406,3.455157453652422,FallGuys,1879.91447,AA04021030
1879.934561,0.4302000000000001,0.4590000000000001,73.77000000000001,9.500000000000002,504.6200000000001,3.439000000000001,,-0.3878660307312,9.98198417586033,-0.9780375745154766,11.24527264,-2.474637529411908,5.295824420302521,FallGuys,1879.934561,AA04021030
1879.954542,0.4322000000000001,0.4544000000000001,71.71000000000001,12.290000000000004,504.7100000000001,3.4220000000000006,,-0.2956879925636,9.830939533394416,-1.0524080108512317,10.81908877,-3.435994975222488,5.591894646391011,FallGuys,1879.954542,AA04021030
1879.974634,0.4304000000000001,0.4557000000000001,71.80000000000001,11.210000000000004,492.5300000000001,3.403000000000001,3.4570000000000007,-0.3429741290262,9.745604018963707,-1.070985237410807,10.45272018,-4.006200638596694,5.24681473997919,FallGuys,1879.974634,AA04021030
1879.994615,0.4298000000000001,0.4598000000000001,70.25000000000001,8.560000000000002,478.2600000000001,3.388000000000001,3.4290000000000007,-0.3130461945562,9.699142173474227,-1.136988892055146,10.87890405,-4.976105150329446,4.7115112992142025,FallGuys,1879.994615,AA04021030
1880.014706,0.4442000000000001,0.4533000000000001,97.56000000000002,21.680000000000003,834.8900000000002,3.383000000000001,3.543000000000001,-0.1652021982744,9.728817799355417,-1.1585949125536636,11.30508792,-5.272529467921716,3.964259679830352,FallGuys,1880.014706,AA04021030
1880.034688,0.4498000000000001,0.4530000000000001,128.98000000000002,32.68000000000001,1229.4600000000005,3.390000000000001,3.516000000000001,0.0993607424404,9.724250005260709,-1.177205785054865,10.72188894,-3.2085891704447698,1.3393862956478548,FallGuys,1880.034688,AA04021030
1880.054778,0.4315000000000001,0.4500000000000001,74.34000000000002,15.310000000000002,517.7400000000001,3.388000000000001,3.378000000000001,-0.0550673994248,9.603562105847145,-1.128911337573656,10.73684276,-0.674719514403711,0.961318571112417,FallGuys,1880.054778,AA04021030
1880.07476,0.4303000000000001,0.4538000000000001,72.70000000000002,12.450000000000005,498.0900000000001,3.380000000000001,3.388000000000001,-0.0616515450082,9.789268679866169,-1.0325358418325885,11.52191831,1.297767886292766,2.797018261576308,FallGuys,1880.07476,AA04021030
1880.094851,0.4300000000000001,0.4504000000000001,72.88000000000001,14.390000000000002,496.6700000000001,3.390000000000001,3.398000000000001,0.0676371319022,9.889535689543411,-1.119324854405242,9.29379913,5.351781978868038,4.320222902416764,FallGuys,1880.094851,AA04021030
1880.114832,0.4282000000000001,0.4504000000000001,70.94000000000001,13.670000000000003,471.1700000000001,3.404000000000001,3.4290000000000007,-0.1652021982744,9.739155341277849,-1.0898082465935155,8.20217027,8.388370218885699,5.6239830214015765,FallGuys,1880.114832,AA04021030
1880.134924,0.4319000000000001,0.4421000000000001,67.87000000000002,18.460000000000004,474.6300000000001,3.4130000000000007,3.403000000000001,-0.5003950643384,9.730121615686476,-1.138066398433493,8.49376976,8.92214066954108,8.42287103685235,FallGuys,1880.134924,AA04021030
1880.154905,0.4268000000000001,0.4450000000000001,63.19000000000001,14.540000000000004,411.3200000000001,3.4090000000000007,3.439000000000001,-0.5159575902628,9.91834594572776,-1.1737912007071596,8.1498319,7.63259885645189,7.282841124479926,FallGuys,1880.154905,AA04021030
1880.174996,0.4339000000000001,0.4379000000000001,74.59000000000002,23.590000000000003,537.2400000000001,3.4260000000000006,3.3850000000000007,-0.6296837412488,9.61485628126604,-1.2341163713234038,7.44700236,4.414948810568205,3.3651167036667604,FallGuys,1880.174996,AA04021030
1880.194978,0.4118000000000001,0.4779000000000001,107.45000000000002,-2.4100000000000006,582.2200000000001,3.2840000000000007,3.375000000000001,-0.5794048113392,9.658518292468896,-1.2446208804141148,8.43395448,1.4629086830073028,1.7758471253567938,FallGuys,1880.194978,AA04021030
1880.215069,0.3730000000000001,0.4987000000000001,142.77000000000004,-16.120000000000005,535.8300000000002,3.4140000000000006,3.419000000000001,-0.5183518250204,9.487428289643672,-1.1801057570131064,9.1218302,-0.464995181163093,1.084907156042241,FallGuys,1880.215069,AA04021030
1880.23505,0.3773000000000001,0.5050000000000001,172.32000000000002,-25.100000000000005,669.8900000000001,3.4930000000000008,3.380000000000001,-0.4836354210351999,9.83596087216773,-1.3080385623797697,9.80222901,-1.6172123708510489,1.8496069987742128,FallGuys,1880.23505,AA04021030
1880.255141,0.3760000000000001,0.5050000000000001,177.12000000000003,-25.530000000000005,681.2300000000001,3.484000000000001,3.390000000000001,-0.4674743364214,9.793806402492034,-1.2990783528440386,9.03958419,-1.5744985881994318,2.230369284286164,FallGuys,1880.255141,AA04021030
1880.275123,0.3758000000000001,0.5061000000000002,176.82000000000002,-26.31000000000001,678.8800000000001,3.4700000000000006,3.391000000000001,-0.3794862090796,9.89375941288972,-1.3729500749879664,7.4021409,-1.4153715711361798,3.26669860090518,FallGuys,1880.275123,AA04021030
1880.295214,0.3762000000000001,0.5059000000000001,177.59000000000003,-26.330000000000005,684.0000000000001,3.444000000000001,3.391000000000001,-0.3866689133524,9.920269811519114,-1.3259589814512305,6.16097384,-1.3872517328432068,4.262078816478504,FallGuys,1880.295214,AA04021030
1880.315194,0.3783000000000001,0.4946000000000001,190.26000000000005,-18.670000000000005,744.8800000000001,3.4300000000000006,3.388000000000001,-0.4680728951108,9.977680836905916,-1.3840568857949862,4.2618387,-1.620266799244317,6.222594860309499,FallGuys,1880.315194,AA04021030
1880.335286,0.3778000000000001,0.4961000000000001,188.22000000000003,-19.730000000000004,734.4900000000001,3.4260000000000006,3.387000000000001,-0.4255752281634,9.69992296593042,-1.17937808316896,2.12344244,-2.169666145897467,6.874449706539849,FallGuys,1880.335286,AA04021030
1880.355267,0.3762000000000001,0.5029000000000001,176.07000000000002,-23.670000000000005,677.9900000000001,3.427000000000001,3.402000000000001,-0.3974429697616,9.534942407055278,-1.1436984504085193,3.02067164,-2.300175286197264,5.900833009930383,FallGuys,1880.355267,AA04021030
1880.37536,0.3762000000000001,0.5016000000000002,173.63000000000002,-22.340000000000003,668.4400000000002,3.428000000000001,3.4130000000000007,-0.4112098196177999,9.763415088724884,-1.2491713891514242,4.36651544,-2.083518845760723,4.043165431878531,FallGuys,1880.37536,AA04021030
1880.39534,0.3748000000000001,0.5041000000000002,187.83000000000004,-26.030000000000005,715.3400000000001,3.419000000000001,3.419000000000001,-0.5488783181797999,9.896567658661748,-1.276249981168917,3.97771612,-2.5717932082583577,4.047580023849831,FallGuys,1880.39534,AA04021030
1880.415431,0.3751000000000001,0.5079000000000001,183.02000000000004,-28.590000000000007,699.0100000000001,3.416000000000001,3.4220000000000006,-0.5345129096342,9.711816330979428,-1.16660782485151,3.25993276,-4.451971362979792,5.127535674752127,FallGuys,1880.415431,AA04021030
1880.435412,0.3749000000000001,0.5094000000000002,183.33000000000004,-29.870000000000005,698.8500000000001,3.4220000000000006,,-0.415998289133,9.772428879259246,-1.1635812182255871,3.37956332,-5.502363486701781,5.580121882236657,FallGuys,1880.435412,AA04021030
1880.455504,0.3746000000000001,0.5120000000000001,113.04000000000002,-19.690000000000005,429.87000000000006,3.367000000000001,3.914000000000001,-0.2795269079498,9.688136762878672,-1.105276938986125,3.44685551,-5.672870301717444,5.4252655101780025,FallGuys,1880.455504,AA04021030
1880.475485,0.3814000000000001,0.4733000000000001,107.39,0.16,430.9400000000001,3.705000000000001,3.500000000000001,-0.2789283492604,9.541291871842692,-1.0648851297193054,4.53100746,-5.407215732783522,5.200632015773124,FallGuys,1880.475485,AA04021030
1880.495576,0.4279000000000001,0.4796000000000001,65.68,-2.4600000000000004,436.1400000000001,3.565000000000001,,-0.2687528515406,9.410616725427492,-0.968573013622038,5.88432817,-5.0969387526253565,5.149968502025383,FallGuys,1880.495576,AA04021030
1880.515558,0.4192000000000001,0.5009000000000001,50.30000000000001,-9.29,298.5400000000001,3.3810000000000007,3.766000000000001,-0.1442526441454,9.564693736305124,-0.9835771001510332,8.63583105,-4.365304477413327,5.139689853282475,FallGuys,1880.515558,AA04021030
1880.535648,0.4261000000000001,0.4916000000000001,60.98000000000001,-7.850000000000001,395.6000000000001,3.431000000000001,3.604000000000001,-0.1125290336071999,9.561545794410732,-1.0012659098705687,9.13678402,-3.320953456214835,4.550796646296915,FallGuys,1880.535648,AA04021030
1880.55563,0.4346000000000001,0.4803000000000001,67.75000000000001,-3.1100000000000008,496.4800000000001,3.460000000000001,3.549000000000001,-0.17956760682,9.622305374801826,-0.9860319389160788,9.84709047,-1.5488516145199438,3.1421916884307177,FallGuys,1880.55563,AA04021030
1880.575722,0.4380000000000001,0.4762000000000002,69.34000000000002,-0.7000000000000002,535.44,3.455000000000001,3.588000000000001,-0.2376277996918,9.633282438854971,-1.0006038029832416,10.47515091,-0.7050416511156901,3.192152795083875,FallGuys,1880.575722,AA04021030
1880.595702,0.4401000000000001,0.4749000000000001,72.59000000000002,0.18,580.9400000000002,3.471000000000001,3.4610000000000007,-0.1981229261914,9.837413907923082,-1.099678995339312,10.17607451,0.3170478126484619,3.433537881655266,FallGuys,1880.595702,AA04021030
1880.615794,0.4361000000000001,0.4770000000000001,68.64000000000001,-1.14,514.9200000000001,3.428000000000001,3.527000000000001,,,,,,,FallGuys,1880.615794,AA04021030
1880.635775,0.4371000000000001,0.4776000000000001,68.01000000000002,-1.5500000000000005,517.7400000000001,3.4540000000000006,3.4850000000000008,-0.4267723455422,10.021469945163036,-1.3450220114712708,6.96848012,2.764034662673004,4.121158632295047,FallGuys,1880.635775,AA04021030
1880.655866,0.4409000000000001,0.4790000000000001,64.54,-2.3600000000000003,523.4800000000001,3.4380000000000006,3.468000000000001,-0.5518711116268,9.781805413059171,-1.2720502297389835,6.16845075,1.7815441315097995,5.828207384507655,FallGuys,1880.655866,AA04021030
1880.675847,0.4390000000000001,0.4782000000000001,62.77000000000001,-1.8000000000000005,493.2700000000001,3.4620000000000006,3.5300000000000007,-0.5584552572102001,9.767513439943356,-1.2500425206340644,6.47500406,0.7137699820100639,6.0551697965593165,FallGuys,1880.675847,AA04021030
1880.69594,0.4416000000000001,0.4728000000000001,62.80000000000001,1.4800000000000002,515.19,3.455000000000001,3.5740000000000007,-0.4734599233154,9.776018379874056,-1.235940099443141,6.5796808,-0.0251778147738808,6.067002982371072,FallGuys,1880.69594,AA04021030
1880.71592,0.4425000000000001,0.4743000000000001,61.65000000000001,0.5700000000000001,513.9900000000001,3.4340000000000006,3.5460000000000007,,,,,,,FallGuys,1880.71592,AA04021030
1880.736011,0.4410000000000001,0.4739000000000001,62.91000000000001,0.8100000000000002,510.8800000000001,3.4530000000000007,3.553000000000001,-0.4267723455422,9.820265869822409,-1.2465690558885152,5.91423581,-1.5133909317828418,6.329824819274753,FallGuys,1880.736011,AA04021030
1880.755992,0.4420000000000001,0.4731000000000001,61.390000000000015,1.2700000000000002,507.4200000000001,3.451000000000001,3.5620000000000007,-0.3579380962612,9.675112310452684,-1.1924623407659676,5.48805194,-2.311129019162544,6.208919243495492,FallGuys,1880.755992,AA04021030
1880.776084,0.4419000000000001,0.4687000000000001,61.54000000000001,3.920000000000001,507.36000000000007,3.4460000000000006,,-0.233437888866,9.674795199086931,-1.101829171083382,6.36285041,-2.454251501765007,5.283847287524064,FallGuys,1880.776084,AA04021030
1880.796065,0.4430000000000001,0.4721000000000001,62.680000000000014,1.9900000000000004,526.7500000000001,3.447000000000001,3.5700000000000007,-0.1993200435702,9.779341238035547,-1.0965142304741078,5.77217452,-1.198654709042238,4.214347331116566,FallGuys,1880.796065,AA04021030
1880.816156,0.4434000000000001,0.4721000000000001,62.280000000000015,2.01,527.2700000000001,3.448000000000001,3.576000000000001,-0.2531903256162,9.674973227440228,-1.0578079910877436,5.49552885,-0.4205613675166891,4.530527242744503,FallGuys,1880.816156,AA04021030
1880.836138,0.4445000000000001,0.4730000000000001,61.88000000000001,1.4400000000000004,534.3600000000001,3.4290000000000007,3.5580000000000007,-0.2340364475554,9.559427539681856,-1.060172953212927,5.87685126,-0.187203761437749,5.520502565318537,FallGuys,1880.836138,AA04021030
1880.856228,0.4448000000000001,0.4705000000000001,61.51000000000001,3.0100000000000007,534.3100000000001,3.391000000000001,,-0.0855938925842,9.307589751577638,-1.0329562029561523,8.98724582,0.653215009808382,5.410661570686071,FallGuys,1880.856228,AA04021030
1880.87621,0.4531000000000001,0.5487000000000002,51.45000000000001,-46.23000000000001,534.3100000000001,3.537000000000001,3.936000000000001,0.0191538780608,9.231681239859288,-1.0388508605251228,11.70884106,2.0258612464669947,4.9277978771007,FallGuys,1880.87621,AA04021030
1880.896301,0.4016000000000001,0.5918000000000002,109.16000000000004,-74.60000000000001,534.2500000000001,3.347000000000001,3.714000000000001,0.3764934156326,8.918342949021799,-1.0591429282807423,17.51092322,6.3694237518757015,3.461824770566841,FallGuys,1880.896301,AA04021030
1880.916282,0.4073000000000001,0.6087000000000002,127.87000000000002,-106.14,665.7100000000002,3.3530000000000006,3.517000000000001,0.475854158073,8.601819958262094,-1.1001756468380393,23.5522665,11.496943655581568,2.5553914883753124,FallGuys,1880.916282,AA04021030
1880.936374,0.4140000000000001,0.5971000000000002,132.58,-108.27000000000002,744.4900000000001,3.359000000000001,3.501000000000001,0.4441305475347999,8.708173364746223,-1.1007522517115411,31.57499093,17.069243982642536,2.051273866122516,FallGuys,1880.936374,AA04021030
1880.956355,0.4210000000000001,0.5876000000000002,113.16000000000004,-92.77000000000002,692.8600000000001,3.3400000000000007,3.527000000000001,0.386070354663,9.182488239126204,-1.399836590000878,39.24630059,24.68123667177716,1.900932939083388,FallGuys,1880.956355,AA04021030
1880.976446,0.4256000000000001,0.5714000000000001,106.30000000000004,-79.03000000000002,690.8500000000001,3.362000000000001,3.529000000000001,0.38906314811,9.24967483721972,-1.6307410632923314,42.79035593,29.217915865226672,1.1277306810403829,FallGuys,1880.976446,AA04021030
1880.996427,0.4356000000000001,0.5616000000000002,89.85000000000002,-69.24000000000001,675.4500000000002,3.384000000000001,3.508000000000001,0.1089376814708,8.958104697036402,-1.8710597531847044,48.98871432,34.974011433828345,-0.3097958185689373,FallGuys,1880.996427,AA04021030
1881.016519,0.4431000000000001,0.5549000000000002,65.96000000000001,-52.97000000000001,562.3700000000001,3.3720000000000008,3.680000000000001,-0.1448512028348,9.78650089121466,-2.1395423659518173,52.29350854,36.871421891447845,1.1367326915145597,FallGuys,1881.016519,AA04021030
1881.0365,0.4471000000000001,0.5353000000000002,55.66000000000001,-36.10000000000001,509.2500000000001,3.3810000000000007,3.673000000000001,-0.4483204583606,10.213997863398571,-2.592672718876769,48.44289989,36.815447005143405,4.038043107757344,FallGuys,1881.0365,AA04021030
1881.056591,0.4633000000000001,0.5211000000000001,41.45000000000001,-29.500000000000007,550.2700000000001,3.335000000000001,3.559000000000001,-0.5692293136194,10.248074778592777,-2.697212996039583,44.53247596,35.01016874774706,5.614222852253401,FallGuys,1881.056591,AA04021030
1881.076572,0.4734000000000001,0.5055000000000002,31.910000000000007,-20.340000000000003,585.6200000000001,3.310000000000001,3.597000000000001,-0.5542653463844,10.027289948756446,-2.664970069996873,40.20334507,32.876424005051675,5.609127400146752,FallGuys,1881.076572,AA04021030
1881.096664,0.5203000000000002,0.5224000000000002,-25.90000000000001,-31.140000000000008,584.9700000000001,3.326000000000001,3.752000000000001,-0.574616341824,10.072072448537854,-2.7968750543009127,34.53584729,29.29796008448986,5.460123533033758,FallGuys,1881.096664,AA04021030
1881.116645,0.5219000000000001,0.5097000000000002,-27.790000000000006,-22.38000000000001,585.3900000000001,3.3330000000000006,3.726000000000001,-0.553666787695,9.768192156654749,-2.772670737398855,31.05908414,26.586414038827925,4.966327653442344,FallGuys,1881.116645,AA04021030
1881.136736,0.4920000000000001,0.4789000000000001,9.500000000000002,-1.6300000000000003,600.8300000000002,3.338000000000001,3.584000000000001,-0.5105705620582,9.407933176249962,-2.682632845106934,29.55622523,23.089571978250035,2.8278357742311178,FallGuys,1881.136736,AA04021030
1881.156717,0.5003000000000002,0.5140000000000001,-1.3700000000000003,-26.390000000000004,600.6900000000002,3.408000000000001,3.9290000000000007,-0.5189503837098001,9.433393952656838,-2.5570914988615163,29.36930248,21.18915751876138,1.6189081923589468,FallGuys,1881.156717,AA04021030
1881.17681,0.4582000000000001,0.5011000000000002,42.150000000000006,-14.680000000000003,488.0100000000001,3.3050000000000006,3.693000000000001,-0.4914166839973999,9.562581492601886,-2.689191334489663,25.84767787,18.24499514881325,0.3184341932637182,FallGuys,1881.17681,AA04021030
1881.19679,0.4633000000000001,0.4940000000000001,42.36000000000001,-12.030000000000005,558.5100000000001,3.2920000000000007,3.646000000000001,-0.5578566985208,9.574059458159876,-2.7791371628287025,22.19894579,16.0844360856585,-0.2083941550624501,FallGuys,1881.19679,AA04021030
1881.216881,0.4734000000000001,0.4975000000000001,44.56000000000001,-20.660000000000004,815.5000000000001,3.290000000000001,3.680000000000001,-0.5309215574978,9.260325240501782,-2.81280755240388,17.97449164,13.546959317009264,1.08771412189293,FallGuys,1881.216881,AA04021030
1881.236862,0.5011000000000002,0.5082000000000002,-3.0800000000000005,-30.260000000000005,816.0900000000001,3.287000000000001,3.8120000000000007,-0.6853496993629999,10.07445112154766,-2.794321002637423,12.52382425,9.022251480425233,3.463601003998715,FallGuys,1881.236862,AA04021030
1881.256954,0.5028000000000001,0.5079000000000001,-5.960000000000001,-29.90000000000001,816.0400000000002,3.294000000000001,3.774000000000001,-0.8278066674401999,10.20608820085854,-2.9667170091067256,4.23193106,4.727897248050984,7.0670641368898615,FallGuys,1881.256954,AA04021030
1881.276935,0.5057000000000001,0.5099000000000001,-10.94,-31.74000000000001,815.7500000000001,3.302000000000001,3.754000000000001,-0.3746977395644,9.207014415879806,-3.2622599152339253,-3.91042393,-1.327521567743574,8.247167916681812,FallGuys,1881.276935,AA04021030
1881.297026,0.4701000000000001,0.4941000000000001,35.24000000000001,-12.260000000000002,573.1600000000001,3.3010000000000006,3.555000000000001,-0.1663993156532,8.939360290161796,-3.251875016485253,-1.59258183,-2.2356648857966013,6.995493453372837,FallGuys,1881.297026,AA04021030
1881.317008,0.4728000000000001,0.4989000000000002,34.440000000000005,-16.660000000000004,617.3600000000001,3.295000000000001,3.5860000000000007,-0.0095769390304,9.220446781084584,-3.3458899247271754,3.20759439,-2.131007087800395,4.970533206711554,FallGuys,1881.317008,AA04021030
1881.337099,0.4724000000000001,0.4975000000000001,33.580000000000005,-15.000000000000004,592.8300000000002,3.2890000000000006,3.543000000000001,0.1227045313269999,9.546063302606674,-3.368595111587478,8.33675465,-1.656933703459461,4.395840977882696,FallGuys,1881.337099,AA04021030
1881.35708,0.4971000000000001,0.4983000000000001,102.63000000000002,-560.1300000000001,21962.400000000005,3.291000000000001,3.690000000000001,0.2166782455628,9.908590219551217,-3.3385646915395437,8.54610813,-0.6209973530423878,5.421609527738376,FallGuys,1881.35708,AA04021030
1881.377171,0.4993000000000001,0.4996000000000001,5.010000000000001,-591.7700000000001,21961.120000000003,3.2920000000000007,3.704000000000001,0.23942347576,9.931163934731211,-3.413734930615319,4.80765313,1.438937089711464,6.481970859310632,FallGuys,1881.377171,AA04021030
1881.397152,0.4731000000000001,0.4983000000000001,32.800000000000004,-15.600000000000003,594.0100000000001,3.3050000000000006,3.499000000000001,0.1891445458504,9.722498779896604,-3.379172674347238,1.97390424,2.8432714025730625,7.047236569370844,FallGuys,1881.397152,AA04021030
1881.417244,0.4650000000000001,0.4564000000000001,44.040000000000006,13.870000000000005,603.7900000000001,3.3210000000000006,3.690000000000001,0.1598151700698,9.183818926313082,-3.3166868538084184,0.4336607799999999,4.48602567483506,5.857224003386028,FallGuys,1881.417244,AA04021030
1881.437225,0.4634000000000001,0.4252000000000001,50.25000000000001,39.16000000000001,653.8100000000002,3.2800000000000007,3.629000000000001,0.1891445458504,9.045224781099266,-3.361271390179528,1.85427368,5.653716261728136,5.524940260941738,FallGuys,1881.437225,AA04021030
1881.457317,0.4619000000000001,0.4134000000000001,65.00000000000001,59.85000000000001,810.4100000000002,3.386000000000001,3.628000000000001,0.0550673994248,8.9098626926339,-3.1862478159910967,4.44876145,7.01424141864159,5.74025230884651,FallGuys,1881.457317,AA04021030
1881.477297,0.4686000000000001,0.4109000000000001,53.67000000000001,62.350000000000016,810.2900000000002,3.4010000000000007,3.5950000000000006,0.1783704894412,9.468561284960751,-3.068185634750311,9.31622986,8.38215207061031,5.594728935113913,FallGuys,1881.477297,AA04021030
1881.497389,0.4714000000000001,0.4074000000000001,49.01000000000001,65.80000000000001,810.4600000000002,,3.567000000000001,0.2178753629416,9.567376983809073,-3.0610407418489114,9.25641458,10.008187849490984,6.30396925775085,FallGuys,1881.497389,AA04021030
1881.51737,0.4755000000000001,0.4162000000000001,33.900000000000006,46.470000000000006,656.1200000000001,3.3610000000000007,3.581000000000001,0.2627672646466,9.7448284373799,-3.230936277653356,7.66383275,12.808126587627148,8.292478520647041,FallGuys,1881.51737,AA04021030
1881.537462,0.4785000000000001,0.4162000000000001,31.140000000000008,48.89000000000001,688.4200000000002,3.3370000000000006,3.580000000000001,0.1484425549712,9.476630890343424,-3.119467281130018,5.6076825,14.371831160874263,11.010038345960265,FallGuys,1881.537462,AA04021030
1881.557442,0.4807000000000001,0.4138000000000001,29.730000000000008,53.83000000000001,728.8200000000002,3.3410000000000006,3.632000000000001,0.0891852447206,9.611598776914615,-3.0055757046234963,4.36651544,15.123065531329308,13.35757369827676,FallGuys,1881.557442,AA04021030
1881.577534,0.4822000000000001,0.4124000000000001,28.840000000000007,57.98000000000001,766.7600000000001,3.343000000000001,3.601000000000001,0.1448512028348,9.33687062465124,-2.9392253295311503,0.59067589,14.275183515631584,15.769829595530997,FallGuys,1881.577534,AA04021030
1881.597515,0.4815000000000001,0.4146000000000001,34.70000000000001,64.87000000000002,889.6700000000002,3.3480000000000008,3.645000000000001,0.2645629407147999,9.176933064532848,-2.8942147948705963,0.0523383699999999,13.4627464116247,16.01131397845795,FallGuys,1881.597515,AA04021030
1881.617606,0.4899000000000001,0.4149000000000001,19.000000000000004,64.76000000000002,888.9500000000002,3.384000000000001,3.576000000000001,0.1813632828882,9.4220120879111,-2.449420102775123,2.22064227,12.97832818097048,14.631354220227422,FallGuys,1881.617606,AA04021030
1881.637587,0.4906000000000001,0.4198000000000001,17.950000000000003,60.67000000000001,904.9500000000002,3.374000000000001,3.6100000000000008,0.1927358979868,9.224286776715228,-2.305811767733556,2.17578081,12.113402459952528,11.245475850450743,FallGuys,1881.637587,AA04021030
1881.657679,0.4999000000000002,0.4221000000000001,0.15,38.74000000000001,599.5700000000002,3.4940000000000007,3.649000000000001,0.2112912173582,8.71362393851509,-1.9445395853674003,4.85251459,10.4128928487339,9.466624723224792,FallGuys,1881.657679,AA04021030
1881.67766,0.5036000000000002,0.4281000000000001,-3.9300000000000006,29.590000000000007,512.8400000000001,3.516000000000001,3.652000000000001,0.3375871008216,8.815084952826526,-2.146625390989098,8.650784869999999,9.092497761677064,10.878587774463927,FallGuys,1881.67766,AA04021030
1881.697751,0.5023000000000002,0.4215000000000001,-2.4300000000000006,33.550000000000004,512.5200000000001,3.402000000000001,3.6790000000000007,0.3190317814502,9.763873595036031,-2.1078078281261834,9.23398385,8.477697009950827,12.553345339734529,FallGuys,1881.697751,AA04021030
1881.717732,0.5046000000000002,0.4254000000000001,-4.960000000000001,31.24000000000001,512.7100000000002,,3.6950000000000007,0.4058227914132,9.67202038610978,-2.609036977054982,2.990764,7.616720941218878,11.199917783942936,FallGuys,1881.717732,AA04021030
1881.737823,0.5072000000000002,0.4539000000000001,-8.030000000000001,14.030000000000005,513.8900000000001,,3.575000000000001,,,,,,,FallGuys,1881.737823,AA04021030
1881.757805,0.5771000000000002,0.5235000000000002,-83.13000000000001,-26.81000000000001,507.4300000000001,2.878000000000001,3.6510000000000007,0.3220245748972,8.698835225373715,-2.987185967295715,0.73273718,4.25260764709872,2.061932372548755,FallGuys,1881.757805,AA04021030
1881.777897,,,,,,,,0.2076998652218,8.965402970841383,-2.922072454417848,5.54786722,1.44397212016071,1.54290980835201,FallGuys,1881.777897,AA04021030
1881.797877,0.5824000000000001,0.6129000000000002,-89.42000000000002,-80.24000000000001,505.6900000000001,,3.2030000000000007,0.2280508606614,9.878534102660476,-2.909943780924213,7.2526027,-3.266433810623676,3.4766992762532523,FallGuys,1881.797877,AA04021030
1881.817968,0.6596000000000002,0.5825000000000002,-167.83000000000004,-59.48000000000001,493.7600000000001,,3.471000000000001,0.1400627333195999,9.759314337046646,-2.9151993787490555,4.34408471,-5.375339059002696,2.977111313373582,FallGuys,1881.817968,AA04021030
1881.83795,0.6557000000000002,0.5527000000000002,-278.36000000000007,-71.66000000000001,841.1300000000001,3.2920000000000007,3.561000000000001,,,,,,,FallGuys,1881.83795,AA04021030
1881.858042,0.6558000000000002,0.5159000000000001,-278.50000000000006,-34.93000000000001,843.0500000000002,3.387000000000001,,0.0700313666597999,9.722072194600653,-2.742061987550988,-0.53086061,-9.88982866850122,3.2793161624281586,FallGuys,1881.858042,AA04021030
1881.878022,0.6114000000000002,0.5541000000000001,-203.75000000000003,-75.73000000000002,859.6600000000002,3.531000000000001,3.657000000000001,0.0562645168035999,9.510988496642227,-2.635389744774679,-0.78507555,-12.075725264442818,4.179647920438788,FallGuys,1881.878022,AA04021030
1881.898114,0.6857000000000002,0.5452000000000001,-134.85000000000002,-25.770000000000007,341.55000000000007,3.5660000000000007,3.714000000000001,0.2639643820254,9.472887671058366,-2.7772142218105205,-0.88975229,-14.857657319102977,5.512428877522288,FallGuys,1881.898114,AA04021030
1881.918095,0.6705000000000002,0.5612000000000001,-124.88000000000002,-32.67000000000001,344.4200000000001,,3.6550000000000007,0.3064620489728,9.0396365114777,-2.762839058613816,1.4206129,-15.87709687250175,5.247548689166301,FallGuys,1881.918095,AA04021030
1881.938186,0.6634000000000002,0.5489000000000002,-120.15000000000002,-27.820000000000004,345.94000000000005,,3.664000000000001,0.3435726877155999,9.165404167675833,-2.798750763112769,6.29555822,-17.013126706064053,4.434154382916615,FallGuys,1881.938186,AA04021030
1881.958167,0.6659000000000002,0.5423000000000002,-114.01000000000002,-23.47000000000001,323.55000000000007,3.557000000000001,3.6430000000000007,0.6159168913926,9.352848167647512,-2.918756158195412,9.96672103,-19.32239019057245,2.8840692240464163,FallGuys,1881.958167,AA04021030
1881.978259,0.6410000000000002,0.5354000000000002,-150.26000000000002,-32.660000000000004,501.9800000000001,3.423000000000001,3.6180000000000008,0.7296430423786,9.240309151458058,-2.944401649514556,11.215365,-19.873437594737037,0.1117853845179324,FallGuys,1881.978259,AA04021030
1881.99824,0.6249000000000002,0.5237000000000002,-137.49000000000004,-26.820000000000004,519.2,3.3530000000000006,3.641000000000001,0.7811190896669999,9.462760078504424,-3.02350545995354,14.10145226,-19.53148253350917,-5.831451967171423,FallGuys,1881.99824,AA04021030
1882.018332,0.6162000000000002,0.5150000000000001,-113.69000000000004,-19.15,461.4600000000001,3.3640000000000008,3.6270000000000007,0.8032657611748,9.903645046533148,-3.027876553177791,14.48277467,-18.755319367515487,-9.084585799444111,FallGuys,1882.018332,AA04021030
1882.038313,0.6138000000000002,0.5184000000000002,-105.92000000000002,-20.06,439.0300000000001,3.383000000000001,3.6590000000000007,0.9469198466308,10.773226628545858,-2.8204641587552994,11.57425668,-13.937280516430617,-5.369443460138562,FallGuys,1882.038313,AA04021030
1882.058404,0.5964000000000002,0.5188000000000001,-90.20000000000002,-20.580000000000005,441.2700000000001,,3.656000000000001,0.8511504563268,10.702653792647046,-2.4126038339986526,2.21316536,-7.546447337094834,-1.5911235611381669,FallGuys,1882.058404,AA04021030
1882.078385,0.5061000000000002,0.4974000000000002,-14.670000000000003,-25.160000000000004,1043.8200000000002,3.652000000000001,3.410000000000001,0.6266909478017999,9.876732834677432,-2.250511385743485,-8.50124667,0.4209816565908449,-3.5216153573238747,FallGuys,1882.078385,AA04021030
1882.098477,0.4806000000000001,0.5171000000000001,25.620000000000005,-31.550000000000008,654.4700000000001,3.4170000000000007,3.520000000000001,-0.1191131791906,9.15521353324476,-2.04635745653868,-10.0938285,10.169148859115865,-11.135515118338464,FallGuys,1882.098477,AA04021030
1882.118457,0.4825000000000001,0.5187000000000002,26.65000000000001,-38.120000000000005,761.1200000000001,3.416000000000001,3.648000000000001,-0.5740177831346,8.435398474209705,-2.266021922416376,-6.19835839,10.717092965055729,-9.960156918369693,FallGuys,1882.118457,AA04021030
1882.138549,0.4886000000000001,0.5345000000000002,16.090000000000003,-50.07000000000001,730.8500000000001,3.423000000000001,3.633000000000001,-0.7380228640302,8.475225202174624,-2.283054387034385,3.43190169,4.570729286084473,1.688555582092071,FallGuys,1882.138549,AA04021030
1882.15853,0.4870000000000001,0.5321000000000001,17.450000000000003,-45.400000000000006,690.3400000000001,3.427000000000001,3.807000000000001,-0.5416956139069999,9.040751113650536,-2.046504951036543,6.16845075,-0.6344686012322907,8.199226286782796,FallGuys,1882.15853,AA04021030
1882.178621,0.4868000000000002,0.5314000000000002,20.410000000000004,-51.59000000000001,793.5900000000001,3.4300000000000006,3.773000000000001,-0.2250580672143999,8.918118150848766,-2.2376739601627045,5.12168335,-3.579344930100953,8.90926253695691,FallGuys,1882.178621,AA04021030
1882.198603,0.4870000000000001,0.5320000000000001,18.460000000000004,-47.89000000000001,729.8800000000001,3.4170000000000007,3.729000000000001,-0.0843967752054,9.719994147752455,-2.193330244782183,4.16463887,-5.707838721897039,2.8872633801860728,FallGuys,1882.198603,AA04021030
1882.218693,0.4871000000000001,0.5366000000000002,18.530000000000005,-52.67000000000001,740.3900000000001,3.4250000000000007,3.730000000000001,-0.0287308170912,9.762738933186272,-1.977837308411926,1.50285891,-6.734724192008485,0.1779023052042183,FallGuys,1882.218693,AA04021030
1882.238675,0.4858000000000002,0.5373000000000002,21.600000000000005,-55.930000000000014,776.7100000000002,3.4290000000000007,3.713000000000001,0.0891852447206,9.365763946296555,-1.7294601989418132,2.97581018,-7.838468614541754,1.314496374807378,FallGuys,1882.238675,AA04021030
1882.258768,0.4844000000000001,0.5396000000000002,22.74000000000001,-55.28000000000001,739.2000000000002,3.435000000000001,3.674000000000001,0.3549453028142,9.858326487525586,-1.7123833649638358,4.76279167,-7.869847249852098,2.605349481643146,FallGuys,1882.258768,AA04021030
1882.278747,0.4822000000000001,0.5419000000000002,24.500000000000004,-53.82000000000001,694.1300000000001,3.4460000000000006,3.682000000000001,0.2286494193508,9.312267019602547,-1.5608228475686163,3.34965568,-6.021080829226197,2.204738081652939,FallGuys,1882.278747,AA04021030
1882.298839,0.4767000000000002,0.5408000000000002,31.640000000000008,-51.67000000000001,676.0500000000002,3.4580000000000006,3.710000000000001,0.2160796868733999,9.757350014134774,-1.7527251677048052,5.81703598,-5.320537295391108,2.048189001471711,FallGuys,1882.298839,AA04021030
1882.31882,0.4772000000000002,0.5392000000000001,31.270000000000007,-50.94000000000001,683.4100000000001,3.4820000000000007,3.882000000000001,0.0077812629622,9.911125474077624,-2.065675480820514,9.32370677,-4.016179841580249,-0.086540266338687,FallGuys,1882.31882,AA04021030
1882.338912,0.4552000000000001,0.4560000000000001,71.19000000000001,17.620000000000005,760.7800000000002,3.573000000000001,4.032000000000001,-0.4183925238906,11.685052681494044,-3.2578272558191346,11.44714921,-0.980753172429492,0.025010764155279,FallGuys,1882.338912,AA04021030
1882.358892,0.4443000000000001,0.3977000000000001,53.79000000000001,42.00000000000001,457.18000000000006,3.4650000000000007,4.090000000000001,-0.6793641124690001,11.622857475324912,-4.376679325774543,6.34789659,1.273807844822877,4.338544802698386,FallGuys,1882.358892,AA04021030
1882.378983,0.4811000000000001,0.4005000000000001,18.500000000000004,41.25000000000001,460.2700000000001,3.394000000000001,3.154000000000001,-0.948715522699,12.897851941514624,-6.183022276714584,3.38704023,5.939087549999562,4.74575154611966,FallGuys,1882.378983,AA04021030
1882.398965,0.4210000000000001,0.4241000000000001,75.41000000000001,27.160000000000004,453.68000000000006,2.8460000000000005,3.948000000000001,-0.975650663722,13.33688840935398,-6.535801042721643,-2.12344244,6.921251312531199,5.446616072673343,FallGuys,1882.398965,AA04021030
1882.419056,0.4634000000000001,0.4145000000000001,35.230000000000004,33.17000000000001,457.12000000000006,,3.782000000000001,-0.4722628059365999,11.078676365913337,-5.082833184572418,-24.00835801,5.275269785344356,19.639671251409887,FallGuys,1882.419056,AA04021030
1882.439037,,,,,,,,-0.0514760472883999,7.371483367445471,-4.026819240335977,-37.7583955,4.866006247163439,16.707303192575353,FallGuys,1882.439037,AA04021030
1882.459127,,,,,,,,0.5189503837098001,6.087490208765777,-2.5679760726682805,-34.35640145,6.117271973224209,11.625650796269936,FallGuys,1882.459127,AA04021030
1882.479108,,,,,,,,0.4255752281634,6.061176261766999,-1.4192960453211962,-33.5713259,14.506662929395434,-1.0501961935385131,FallGuys,1882.479108,AA04021030
1882.4992,,,,,,,,-0.2178753629416,5.746632780490383,-0.5844645465750304,-24.28500368,16.36740226357948,-9.953423403884898,FallGuys,1882.4992,AA04021030
1882.51918,,,,,,,,-0.8493547802586,5.948511286443201,-0.2565450554117947,-13.39114581,15.83143529041807,-11.108395576206767,FallGuys,1882.51918,AA04021030
1882.539272,,,,,,,,-1.1438456554434,5.977315780841748,-0.2822494271287825,-3.40947096,13.892914457047247,-6.958459349135301,FallGuys,1882.539272,AA04021030
1882.559253,,,,,,,,-1.0468791477606,7.000438563745778,-0.5241981317367109,4.45623836,10.66767299079153,-2.496802453018335,FallGuys,1882.559253,AA04021030
1882.579346,,,,,,,,-0.619508243529,7.576091730008962,-0.7236602818787312,12.69579318,7.80688982982762,6.412604030905275,FallGuys,1882.579346,AA04021030
1882.599326,,,,,,,,-0.2645629407147999,8.987850602267116,-0.999873604059408,20.98768637,7.41470309575212,9.889879095025336,FallGuys,1882.599326,AA04021030
1882.619418,0.4767000000000002,0.5098000000000001,36.70000000000001,-30.72000000000001,773.7300000000001,2.751000000000001,3.759000000000001,0.3746977395644,10.393090392869968,-1.3787294968409365,26.29629247,10.839886728283368,13.99280934748135,FallGuys,1882.619418,AA04021030
1882.639399,0.4884000000000001,0.3935000000000001,9.210000000000004,36.34000000000001,370.06000000000006,3.395000000000001,3.799000000000001,0.6883424928099999,11.623861091787866,-1.9248857411095628,24.12798857,14.282176044484908,16.59388974081256,FallGuys,1882.639399,AA04021030
1882.659491,0.4973000000000002,0.3808000000000001,2.4200000000000004,41.96000000000001,369.93000000000006,,3.866000000000001,,,,,,,FallGuys,1882.659491,AA04021030
1882.679472,0.5013000000000002,0.4034000000000001,-0.8500000000000002,30.38000000000001,349.7200000000001,3.6180000000000008,3.763000000000001,0.855938925842,11.114060635818294,-2.2620099618918177,14.96877382,16.731552233813638,20.888946380281396,FallGuys,1882.679472,AA04021030
1882.699564,0.4941000000000001,0.3976000000000001,6.810000000000001,49.48000000000001,529.5900000000001,3.4940000000000007,3.7070000000000007,1.1540211531632,11.283280353850792,-2.130921603298612,16.18003324,15.626546944057896,18.998804793622668,FallGuys,1882.699564,AA04021030
1882.719545,0.5024000000000002,0.3964000000000001,-1.9500000000000004,41.84000000000001,439.7900000000001,3.6100000000000008,3.8280000000000007,1.3563339901804,11.090552871898446,-2.001226137523074,8.957338179999999,16.518780804785386,13.450746626052016,FallGuys,1882.719545,AA04021030
1882.739636,0.4972000000000001,0.3917000000000001,3.880000000000001,59.460000000000015,591.4600000000002,3.504000000000001,3.802000000000001,1.2725357736644,10.762319381455653,-1.7864303411415328,2.3178421,17.97874168836062,9.746509149880293,FallGuys,1882.739636,AA04021030
1882.759617,0.4983000000000001,0.3943000000000001,2.6000000000000005,62.22000000000001,638.2600000000001,3.4970000000000008,3.733000000000001,,,,,,,FallGuys,1882.759617,AA04021030
1882.779709,0.5002000000000002,0.3976000000000001,0.01,70.82000000000001,756.0000000000001,3.4940000000000007,3.708000000000001,0.9271674098806,9.18952147078438,-1.1277984603272522,-5.48805194,22.779493590803,6.5475524235209335,FallGuys,1882.779709,AA04021030
1882.79969,0.5052000000000002,0.3998000000000001,-7.830000000000002,68.07000000000001,746.1700000000002,3.447000000000001,3.7150000000000007,0.7906960286974,8.71004272476577,-1.0430161658601746,-4.51605364,24.80095757303761,6.240180148876359,FallGuys,1882.79969,AA04021030
1882.819781,0.5117000000000002,0.4035000000000001,-15.440000000000005,55.54000000000001,637.7300000000001,3.483000000000001,3.704000000000001,0.305264931594,8.781673932139178,-0.826931988958622,2.57953395,26.806234199146584,7.510902023213442,FallGuys,1882.819781,AA04021030
1882.839762,0.5168000000000001,0.4051000000000001,-22.890000000000004,55.82000000000001,653.9400000000002,3.495000000000001,3.7270000000000008,-0.155625259244,9.99843692351864,-0.9668483737808256,4.29174634,26.749767050284635,9.76258143860412,FallGuys,1882.839762,AA04021030
1882.859854,0.5203000000000002,0.4037000000000001,-25.370000000000005,52.15000000000001,598.9400000000002,3.501000000000001,3.7840000000000007,-0.4507146931181999,8.926266447066368,-1.3759715068345966,0.2093534799999999,23.450948532276364,9.45476577123349,FallGuys,1882.859854,AA04021030
1882.879834,0.5254000000000002,0.4031000000000001,-31.050000000000004,51.49000000000001,585.7700000000001,3.484000000000001,3.823000000000001,-0.9080135318198,8.929427762078712,-1.9224857819760808,5.74974379,20.45367710683922,9.954264432890884,FallGuys,1882.879834,AA04021030
1882.899926,0.5294000000000002,0.3996000000000001,-36.17000000000001,54.430000000000014,590.5200000000001,3.535000000000001,3.885000000000001,-1.4227740047038002,9.054177717069512,-2.1013729859448618,13.66031457,13.343805666855152,10.884574231243,FallGuys,1882.899926,AA04021030
1882.919908,0.5307000000000002,0.3993000000000001,-36.190000000000005,52.39000000000001,565.2900000000001,3.513000000000001,3.911000000000001,-1.2827112713842,9.468510691428396,-2.380364607048642,17.01744716,7.076880508475128,16.176215751070536,FallGuys,1882.919908,AA04021030
1882.939999,0.5313000000000002,0.3969000000000001,-34.49000000000001,50.44000000000001,528.3400000000001,3.5260000000000007,3.908000000000001,-0.829003784819,9.2672167394479,-2.4550689777209604,18.78199792,2.142498839769309,21.55152593050836,FallGuys,1882.939999,AA04021030
1882.95998,0.5301000000000001,0.3923000000000001,-34.470000000000006,55.55000000000001,550.7600000000001,3.5380000000000007,3.904000000000001,-0.0490818125308,10.258380861886602,-2.533570361823717,20.68860997,0.8622726972672541,23.619974340399192,FallGuys,1882.95998,AA04021030
1882.980071,0.5285000000000002,0.3891000000000001,-32.160000000000004,56.820000000000014,543.2800000000001,3.5260000000000007,3.906000000000001,0.9523068748354,10.114187048099538,-2.731171225664925,17.37633884,2.178517982634294,26.61180777405185,FallGuys,1882.980071,AA04021030
1883.000052,0.5268000000000002,0.3879000000000001,-32.2,61.26000000000001,577.9000000000001,3.515000000000001,3.891000000000001,2.6145043552992,10.577607123734088,-2.3070852633559347,11.30508792,5.652501150951796,28.67871897461277,FallGuys,1883.000052,AA04021030
1883.020145,0.5264000000000002,0.3877000000000001,-33.32000000000001,64.53000000000002,607.4300000000001,3.517000000000001,3.895000000000001,3.2226399837296,10.21328919983826,-2.164170493830301,5.06186807,10.417177708092098,26.137165934449747,FallGuys,1883.020145,AA04021030
1883.040125,0.5283000000000002,0.3811000000000001,-35.470000000000006,68.88000000000001,603.6800000000001,3.528000000000001,3.936000000000001,4.0175259232528,10.265466749770235,-1.9647569630543684,0.3738455,19.272282023567264,18.8889033773328,FallGuys,1883.040125,AA04021030
1883.060216,0.5294000000000002,0.3803000000000001,-36.150000000000006,68.26000000000002,593.3600000000001,3.528000000000001,3.922000000000001,3.4584721073532,10.603658215899085,-1.9570907712045296,-5.27122155,25.05578502823404,10.351966908147189,FallGuys,1883.060216,AA04021030
1883.080197,0.5329000000000002,0.3867000000000001,-37.73,59.26000000000001,550.4500000000002,3.533000000000001,3.908000000000001,2.412191518282,9.892060594511232,-1.6601964787732757,-11.32004174,27.422490191586107,4.00893141174372,FallGuys,1883.080197,AA04021030
1883.100289,0.5398000000000002,0.3916000000000001,-49.51000000000001,60.88000000000001,596.8800000000001,3.501000000000001,3.931000000000001,0.577609135271,9.615009075163115,-1.2506709815797667,-14.84914326,21.074121775666704,1.077707596037163,FallGuys,1883.100289,AA04021030
1883.12027,0.5448000000000002,0.3954000000000001,-64.38000000000001,67.16000000000001,687.3900000000001,3.5020000000000007,3.843000000000001,-0.3244188096547999,9.828308391202508,-0.8517473568290629,-14.34819029,11.157457239746874,0.0591848134903618,FallGuys,1883.12027,AA04021030
1883.140361,0.5480000000000002,0.4036000000000001,-69.13000000000001,60.63000000000001,687.7500000000001,3.468000000000001,3.813000000000001,-1.3311945252256,9.28544514677328,-0.7369701378020261,-14.10145226,-4.698356824522578,1.5948946109796207,FallGuys,1883.140361,AA04021030
1883.160342,0.5499000000000002,0.4098000000000001,-72.33000000000001,55.930000000000014,691.6800000000002,3.475000000000001,3.8000000000000007,-1.7825077770332,8.862034202082981,-0.7828200075499457,-8.76293852,-14.929154472443988,2.011409692382391,FallGuys,1883.160342,AA04021030
1883.180434,0.5531000000000001,0.4189000000000001,-55.40000000000001,34.88000000000001,496.7400000000001,3.488000000000001,3.775000000000001,-1.8866569889888,9.253555165350964,-0.7919967283932209,-3.67116281,-24.790791329168886,5.926825185815352,FallGuys,1883.180434,AA04021030
1883.200415,0.5496000000000002,0.4398000000000001,-37.900000000000006,16.440000000000005,362.6500000000001,3.4860000000000007,3.637000000000001,-1.6388536915772,9.04939719928679,-1.1824605827264525,4.22445415,-38.27070274028629,17.34564746505996,FallGuys,1883.200415,AA04021030
1883.220507,0.5303000000000002,0.4471000000000001,-32.68000000000001,18.440000000000005,511.0100000000001,3.1880000000000006,3.5540000000000007,-0.6919338449464,9.614688051557916,-1.6379549730034122,7.86570932,-45.812526897565405,26.8525546435487,FallGuys,1883.220507,AA04021030
1883.240487,0.5012000000000002,0.4040000000000001,-3.5100000000000007,146.67000000000002,1703.1100000000004,3.338000000000001,3.6630000000000007,0.2777312318816,8.762667257437297,-1.6447151248891418,4.31417707,-51.04607209545114,36.61028497920343,FallGuys,1883.240487,AA04021030
1883.260579,0.5004000000000002,0.4198000000000001,-0.7200000000000002,67.16000000000001,995.8800000000002,3.319000000000001,3.5700000000000007,0.5991572480894,8.319441299199765,-1.8931858100918184,4.89737605,-53.25487223426427,39.99212439547183,FallGuys,1883.260579,AA04021030
1883.28056,0.5055000000000002,0.5729000000000002,-4.980000000000001,-39.510000000000005,348.2800000000001,3.1590000000000007,4.000000000000001,1.2527833369142,8.904264161980581,-2.1013282788182246,10.75179658,-55.136106887584056,40.13209892923844,FallGuys,1883.28056,AA04021030
1883.300651,0.4990000000000001,0.6388000000000003,-0.6000000000000001,-66.27000000000001,345.4600000000001,3.2280000000000006,,0.9385400249792,9.442901033363896,-2.0114341819314667,11.82847162,-53.92211117647746,33.90413227471483,FallGuys,1883.300651,AA04021030
1883.320632,0.5001000000000002,0.6252000000000002,-1.7700000000000002,-80.04000000000002,455.74000000000007,3.197000000000001,3.468000000000001,1.379677779067,9.071378411395647,-1.6577076562999364,11.74622561,-53.88638414676619,31.878535818529343,FallGuys,1883.320632,AA04021030
1883.340724,0.4912000000000001,0.6254000000000002,8.140000000000002,-95.94,544.4100000000001,3.1710000000000007,3.4620000000000006,2.4774344154266,9.76093501550362,-1.3673588179001288,9.62278317,-50.59247248328673,31.04844612255023,FallGuys,1883.340724,AA04021030
1883.360705,0.4796000000000001,0.6364000000000002,15.290000000000004,-74.15000000000002,390.88000000000005,3.1920000000000006,3.4850000000000008,3.0083559729244,9.242765128143027,-1.648854146374881,5.24879082,-45.95857141342039,32.74650597280728,FallGuys,1883.360705,AA04021030
1883.380796,0.4746000000000001,0.6539000000000003,22.47000000000001,-96.06000000000002,456.0100000000001,3.145000000000001,3.398000000000001,2.8024517837708,9.293060069557423,-1.7519462247949649,9.55549098,-37.38066851545016,33.65210600945613,FallGuys,1883.380796,AA04021030
1883.400777,0.4735000000000001,0.6425000000000002,26.750000000000004,-101.60000000000002,515.5400000000001,3.2430000000000008,3.410000000000001,2.4678574763962,9.696587321657482,-1.6902432594054346,12.8602852,-35.0473183702441,37.68899864731485,FallGuys,1883.400777,AA04021030
1883.42087,0.4625000000000001,0.6369000000000002,37.20000000000001,-94.65000000000002,495.8700000000001,3.246000000000001,3.3200000000000007,2.681542928512,9.00812597167184,-2.162568363270572,17.14455463,-35.613441986191546,41.82240497858284,FallGuys,1883.42087,AA04021030
1883.440849,0.4532000000000001,0.6377000000000002,48.78000000000001,-98.92000000000002,514.9200000000001,3.170000000000001,3.3250000000000006,2.8287883661044,8.685682626500364,-2.0615985764387323,20.81571744,-34.947993491763825,35.09951974829907,FallGuys,1883.440849,AA04021030
1883.460941,0.4423000000000001,0.6271000000000002,73.79000000000002,-112.70000000000002,626.3300000000002,3.148000000000001,3.3490000000000006,2.9215649629614,8.701997215919395,-2.169094593871438,21.60079299,-33.87990256876581,25.523940815893923,FallGuys,1883.460941,AA04021030
1883.480922,0.4327000000000001,0.6206000000000002,103.42000000000002,-129.25000000000003,749.0600000000002,3.1310000000000007,3.3090000000000006,4.100725581079399,8.534285039414057,-2.301727252019624,24.14294239,-33.74956314161226,14.917011394881918,FallGuys,1883.480922,AA04021030
1883.501014,0.4255000000000001,0.6123000000000002,109.98000000000002,-116.77000000000002,716.1300000000001,3.185000000000001,3.3170000000000006,4.2874758921722,9.019089787226957,-2.421909750682385,28.53188856,-33.59944657346382,6.56084306171595,FallGuys,1883.501014,AA04021030
1883.520995,0.4177000000000001,0.6025000000000001,134.45000000000002,-119.86000000000004,790.3300000000002,3.2110000000000007,3.2970000000000006,4.0977327876324,9.18415803542894,-2.460055745779472,30.57308499,-32.66130055472475,-3.698002451015082,FallGuys,1883.520995,AA04021030
1883.541086,0.4133000000000001,0.6025000000000001,123.52000000000002,-104.59000000000002,688.7400000000001,3.206000000000001,3.326000000000001,3.5656141127558003,9.248391542952172,-2.6242439886268216,31.50022183,-29.51507990791903,-12.163579937913408,FallGuys,1883.541086,AA04021030
1883.561067,0.4115000000000001,0.5994000000000002,107.34000000000002,-86.83000000000001,585.6800000000001,3.157000000000001,3.3290000000000006,2.9790265971438,9.255106400704758,-2.690535945707911,32.89092709,-25.4504041955322,-18.034339830367056,FallGuys,1883.561067,AA04021030
1883.581159,0.4276000000000001,0.5867000000000002,13164.190000000002,-11685.800000000005,88150.77000000002,3.169000000000001,3.547000000000001,1.9279575385574,9.445410502520666,-2.9726990182358715,32.36754339,-18.31078640670296,-18.32123677614245,FallGuys,1883.581159,AA04021030
1883.60114,0.4272000000000001,0.5752000000000002,13281.330000000002,-10492.690000000002,88286.65000000002,3.1910000000000007,,1.8411665285944,9.4623016968132,-2.9738416291844505,30.17680876,-13.0310327184316,-17.18087431922549,FallGuys,1883.60114,AA04021030
1883.621231,0.4157000000000001,0.5427000000000002,172.66000000000005,-79.54000000000002,984.6700000000002,4.068000000000001,3.580000000000001,1.382670572514,10.588847380387683,-3.1380288226387063,25.56355529,-2.4678620268436258,-21.535875487551348,FallGuys,1883.621231,AA04021030
1883.641212,0.5253000000000002,0.6146000000000001,-55.71000000000001,-159.49000000000004,982.7100000000002,3.6180000000000008,,0.8810783907968,10.515399931606767,-3.241743600218692,20.43439503,2.907228012923829,-24.04665300314304,FallGuys,1883.641212,AA04021030
1883.661304,,,,,,,,0.5339143509448,10.441213747796697,-3.202109536264863,10.54992001,4.880898531446446,-17.242638175432866,FallGuys,1883.661304,AA04021030
1883.681284,,,,,,,,0.6787655537796,9.487878046702743,-2.741236950354747,6.729219,4.003540733098031,-12.164022879781797,FallGuys,1883.681284,AA04021030
1883.701375,0.5141000000000001,0.6731000000000003,-33.60000000000001,-228.06000000000003,982.1700000000002,,2.0490000000000004,1.044484913003,9.393039363804425,-2.8275543327381434,8.38161611,4.0785399267786815,-9.833272218416996,FallGuys,1883.701375,AA04021030
1883.721357,0.5476000000000002,0.6051000000000002,-47.51000000000001,-69.09000000000002,459.7500000000001,2.9260000000000006,3.326000000000001,1.1875404397696,9.68257317679991,-2.6198470739398445,7.54420219,6.781030872914677,-16.178885651702487,FallGuys,1883.721357,AA04021030
1883.741448,0.5465000000000002,0.5706000000000002,-41.89000000000001,-45.70000000000001,417.5700000000001,2.996000000000001,3.3810000000000007,1.0408935608666,9.741409353786237,-2.579115106164073,5.82451289,8.754681401170718,-23.25627730716671,FallGuys,1883.741448,AA04021030
1883.76143,0.5411000000000001,0.5462000000000001,-31.980000000000008,-29.210000000000004,361.63000000000005,3.068000000000001,3.4210000000000007,0.137668498562,9.3684262093504,-2.707279645502581,3.738455,8.398637766660329,-29.31868865181459,FallGuys,1883.76143,AA04021030
1883.781521,0.4994000000000002,0.5678000000000002,-0.4800000000000001,-39.02000000000001,362.5200000000001,3.359000000000001,3.3970000000000007,-0.2729427623664,9.315133594859,-3.496357499932996,5.51048267,4.433259609881551,-28.23121511071628,FallGuys,1883.781521,AA04021030
1883.801502,0.5381000000000001,0.5235000000000002,-34.21000000000001,-22.590000000000003,418.81000000000006,3.1800000000000006,3.427000000000001,-0.6596116757188001,8.758802151970352,-3.5543416803404324,7.3273718,-0.5668386807029728,-22.589686126303675,FallGuys,1883.801502,AA04021030
1883.821594,0.5305000000000002,0.5212000000000002,-32.470000000000006,-25.40000000000001,492.9000000000001,3.185000000000001,3.4170000000000007,-0.1753776959942,8.586746766396589,-4.01832961159641,12.42662442,-5.780805330304935,-14.25024783834498,FallGuys,1883.821594,AA04021030
1883.841575,0.5297000000000002,0.5202000000000002,-33.21000000000001,-26.050000000000004,517.6000000000001,3.201000000000001,3.4780000000000006,0.691335286257,9.25804682978352,-3.937664091625127,13.64536075,-5.951274827315097,-5.270593516476875,FallGuys,1883.841575,AA04021030
1883.861667,0.4805000000000001,0.5201000000000001,18.190000000000005,-23.950000000000006,462.80000000000007,3.2350000000000008,3.323000000000001,2.1194963191654,9.747234656778858,-3.801155355351815,8.68069251,-1.1383272091165593,9.101295403527136,FallGuys,1883.861667,AA04021030
1883.881647,0.4121000000000001,0.5190000000000001,177.94000000000003,-51.23000000000001,970.7700000000002,3.339000000000001,3.185000000000001,2.699499689194,9.049815622337174,-3.4577084160180456,4.07491595,5.3340169820216365,12.220197915490026,FallGuys,1883.881647,AA04021030
1883.90174,0.3769000000000001,0.5032000000000002,157.10000000000002,-21.440000000000005,608.5100000000001,3.346000000000001,3.398000000000001,2.9634640712194003,8.373790009325914,-2.9560351832891465,2.40756502,16.952138336269606,7.18232313304023,FallGuys,1883.90174,AA04021030
1883.921719,0.3801000000000001,0.5006000000000002,177.69000000000003,-22.690000000000005,706.9400000000002,3.376000000000001,3.391000000000001,2.8150215162482,8.106958271104538,-2.760410041311496,2.78888743,22.6455270607747,4.191115913778487,FallGuys,1883.921719,AA04021030
1883.941812,0.3852000000000001,0.5002000000000002,176.71000000000004,-23.13000000000001,734.4200000000002,3.390000000000001,3.404000000000001,2.5307061387832,8.266467983387136,-2.597273145613099,3.85808556,25.78324373557672,2.4463768575375573,FallGuys,1883.941812,AA04021030
1883.961792,0.3899000000000001,0.5117000000000002,153.48000000000002,-29.920000000000005,666.0500000000002,3.400000000000001,3.390000000000001,2.3158235692886,7.535741427255758,-2.94312377926614,3.1403022,25.037447356906156,0.9155881289307056,FallGuys,1883.961792,AA04021030
1883.981884,0.3927000000000001,0.5107000000000002,152.54000000000002,-29.670000000000005,679.6900000000002,3.387000000000001,3.444000000000001,,,,,,,FallGuys,1883.981884,AA04021030
1884.001865,0.3830000000000001,0.5213000000000002,94.28000000000002,-21.800000000000004,385.12000000000006,3.3970000000000007,3.5860000000000007,2.5091580259648,7.85510689673562,-3.660265638682252,16.688463119999998,23.52978386753385,-3.480264400777941,FallGuys,1884.001865,AA04021030
1884.021956,0.3769000000000001,0.4842000000000001,166.18000000000004,-8.150000000000002,642.9100000000001,3.420000000000001,3.452000000000001,2.4475064809566,8.93944982903499,-3.761020514513059,20.81571744,23.18682851014471,-4.194693695964114,FallGuys,1884.021956,AA04021030
1884.041937,0.3785000000000001,0.4734000000000001,165.52000000000004,0.12,648.3200000000002,3.411000000000001,3.456000000000001,2.1374530798474,10.170405118245238,-3.736284513010887,14.46782085,22.35899575832903,-6.327204894309242,FallGuys,1884.041937,AA04021030
1884.062028,0.3838000000000001,0.4634000000000001,158.63000000000002,7.9300000000000015,649.5500000000002,3.467000000000001,,1.8537362610718,9.704966338546926,-3.59696500588586,9.09192256,21.120825641995147,-7.585169479376958,FallGuys,1884.062028,AA04021030
1884.08201,0.3913000000000001,0.4625000000000001,148.76000000000002,8.750000000000002,651.3600000000001,3.463000000000001,,,,,,,,FallGuys,1884.08201,AA04021030
1884.102102,0.4014000000000001,0.4648000000000001,162.39000000000004,8.670000000000002,785.0500000000002,3.4450000000000007,3.394000000000001,1.4946010474318,9.552588608434364,-3.421384299494345,5.69740542,15.033469730762365,-6.986861305448703,FallGuys,1884.102102,AA04021030
1884.122082,0.4081000000000001,0.4569000000000001,147.45000000000002,15.730000000000002,764.1600000000002,3.4530000000000007,3.4610000000000007,1.233030900164,9.632193782764782,-3.400977120642645,5.66749778,12.777597419763412,-10.191744066929733,FallGuys,1884.122082,AA04021030
1884.142174,0.4113000000000001,0.4581000000000002,137.44000000000003,14.240000000000002,738.5900000000001,3.4730000000000008,3.4610000000000007,1.0570546454804,9.379413534435304,-3.208338715176904,4.65811493,9.468373633784456,-15.259528029622988,FallGuys,1884.142174,AA04021030
1884.162155,0.4167000000000001,0.4598000000000001,121.27000000000002,12.120000000000005,694.7100000000002,3.507000000000001,3.479000000000001,0.9289630859488,8.854586282560204,-2.902189224214193,5.58525177,7.155359089701186,-15.1730108669362,FallGuys,1884.162155,AA04021030
1884.182246,0.4203000000000001,0.4595000000000001,104.17000000000002,11.220000000000002,623.5400000000001,3.507000000000001,3.592000000000001,,,,,,,FallGuys,1884.182246,AA04021030
1884.202227,0.4263000000000001,0.4636000000000001,97.20000000000002,8.38,629.7200000000001,3.4140000000000006,3.528000000000001,1.10733357539,9.164320899511685,-2.8009682307400894,6.46005024,0.8862316329021542,-6.655154907563882,FallGuys,1884.202227,AA04021030
1884.222319,0.4313000000000001,0.4644000000000001,96.78000000000002,8.390000000000002,673.0400000000001,3.4210000000000007,3.452000000000001,1.152225477095,9.223731031671909,-2.7028367611491224,4.01510067,-0.7000670423238449,-4.552224564137985,FallGuys,1884.222319,AA04021030
1884.2423,0.4346000000000001,0.4597000000000001,98.02000000000002,13.000000000000002,715.5900000000001,3.4810000000000008,3.463000000000001,0.9541025509036,8.944010811950806,-2.651335491375677,3.53657843,-2.274913946114082,-3.6900480498409705,FallGuys,1884.2423,AA04021030
1884.262391,0.4390000000000001,0.4562000000000001,89.35000000000002,15.700000000000005,700.4400000000002,3.501000000000001,3.5260000000000007,0.8864654190014,9.045051927525265,-2.498412152631635,5.86189744,-3.689178592127784,-3.6187552651240624,FallGuys,1884.262391,AA04021030
1884.282373,0.4406000000000001,0.4582000000000001,83.91000000000001,13.550000000000002,675.2300000000001,3.501000000000001,3.523000000000001,,,,,,,FallGuys,1884.282373,AA04021030
1884.302464,0.4426000000000001,0.4574000000000001,81.34000000000002,14.320000000000002,677.2400000000001,3.4970000000000008,3.503000000000001,0.703306460045,9.153479806384803,-2.843334837097291,8.99472273,-9.485310710143484,-0.3916787004717303,FallGuys,1884.302464,AA04021030
1884.322445,0.4446000000000001,0.4569000000000001,79.11000000000001,14.870000000000005,682.9500000000002,3.4530000000000007,3.491000000000001,0.6434505911049999,9.759286452890825,-3.024729073669987,10.01158249,-12.04627680466434,-0.6805189302976049,FallGuys,1884.322445,AA04021030
1884.342536,0.4478000000000001,0.4532000000000001,77.10000000000001,18.56,706.1400000000001,3.407000000000001,3.4500000000000006,0.1514353484182,10.204722392043443,-3.0508731545610392,9.61530626,-14.480455938895402,-6.270633124036428,FallGuys,1884.342536,AA04021030
1884.362517,0.4599000000000001,0.4397000000000001,135.12000000000003,68.45000000000002,1608.4900000000002,3.2810000000000006,3.129000000000001,-0.2298465367296,10.023473338035672,-3.137793301047331,7.01334158,-16.384504833864447,-8.755327605828215,FallGuys,1884.362517,AA04021030
1884.382609,0.5237000000000002,0.4467000000000001,-45.46000000000001,32.95000000000001,905.49,2.870000000000001,3.1230000000000007,-0.8296023435084,9.363222929984348,-2.9735874350759115,4.06743904,-19.83083887948725,-6.700383542912471,FallGuys,1884.382609,AA04021030
1884.40259,0.5891000000000002,0.4871000000000001,-168.91000000000005,-8.420000000000002,895.9400000000002,,3.399000000000001,-1.0540618520334,9.202784468361113,-2.8532029361434814,3.77583955,-22.330520271839617,-2.996821150963121,FallGuys,1884.40259,AA04021030
1884.422681,0.5845000000000002,0.4824000000000001,-160.34000000000003,-3.480000000000001,897.2500000000002,,3.3530000000000006,-1.1246917773826,9.101137014210977,-2.7153302406014213,4.83756077,-25.3941618564186,2.5847228732016303,FallGuys,1884.422681,AA04021030
1884.442663,0.5507000000000002,0.5148000000000001,-97.36,-39.040000000000006,900.9200000000002,3.359000000000001,3.3090000000000006,-1.044484913003,9.408035038848013,-2.693669251944509,6.26565058,-29.536260757268117,12.011087793956705,FallGuys,1884.442663,AA04021030
1884.462754,0.5505000000000002,0.5089000000000001,-96.89,-32.730000000000004,901.5400000000002,3.3160000000000007,3.2800000000000007,-0.888859653759,9.290034512324596,-2.7536458525663963,5.73478997,-31.45452795813279,13.703011464555,FallGuys,1884.462754,AA04021030
1884.482734,0.5750000000000002,0.4802000000000001,-142.86,-1.4300000000000004,900.9600000000002,,3.237000000000001,-0.6626044691658,9.161859374187664,-2.576478326806283,3.92537775,-33.57110081958751,13.419083865170908,FallGuys,1884.482734,AA04021030
1884.502826,0.5424000000000002,0.5044000000000002,-81.64000000000001,-28.250000000000007,903.2000000000002,3.2600000000000007,3.209000000000001,-0.5494768768692,9.197983677754712,-2.5792613381220924,1.97390424,-35.063164292526906,13.483981455860537,FallGuys,1884.502826,AA04021030
1884.522807,0.5658000000000002,0.4726000000000001,-125.60000000000002,6.400000000000001,902.84,,3.1710000000000007,-0.4315608150573999,9.272300070705247,-2.647071897915356,0.71030645,-37.07003433040288,13.17673580044374,FallGuys,1884.522807,AA04021030
1884.542899,0.5591000000000002,0.4797000000000001,-113.15000000000002,-1.3500000000000003,904.1700000000002,,3.1030000000000006,-0.4285680216104,9.46257490120557,-2.658755313595877,0.45609151,-37.41150712420653,12.828900911398003,FallGuys,1884.542899,AA04021030
1884.56288,0.5552000000000001,0.4794000000000001,-105.72000000000004,-1.1700000000000002,904.8100000000002,,3.1070000000000007,-0.4375464019514,9.490502039949089,-2.533126278023616,-0.49347606,-37.22710877192681,11.215052409832866,FallGuys,1884.56288,AA04021030
1884.582971,0.5505000000000002,0.4795000000000001,-96.87000000000002,-1.4200000000000004,905.5200000000002,,3.0920000000000005,-0.7224603381057999,9.52322950691242,-2.554769056549952,-3.18516366,-36.13725011074462,10.26486461743762,FallGuys,1884.582971,AA04021030
1884.602952,0.5188000000000001,0.5058000000000001,-37.00000000000001,-30.47000000000001,906.09,3.061000000000001,3.069000000000001,-0.7535853899546,9.604848886060644,-2.6400421161100383,-5.21140627,-35.71136737553795,9.463453219879366,FallGuys,1884.602952,AA04021030
1884.623044,0.5496000000000002,0.4810000000000001,-59.58000000000001,-1.8900000000000003,566.0100000000001,2.9210000000000007,3.0550000000000006,-0.7565781834016,8.880028848836504,-2.437022386368405,-5.6076825,-33.31185721572713,7.91384455252041,FallGuys,1884.623044,AA04021030
1884.643025,0.5171000000000001,0.5061000000000002,-21.190000000000005,-19.390000000000004,568.5900000000001,3.021000000000001,3.0350000000000006,-0.7176718685906001,9.108472721577112,-2.398685452186662,-3.97771612,-31.20577892346537,8.54398053039804,FallGuys,1884.643025,AA04021030
1884.663116,0.5055000000000002,0.5126000000000002,-7.490000000000001,-23.97000000000001,568.4200000000001,3.0260000000000007,3.0220000000000007,-0.8307994608872,9.595726083982669,-2.305824553845,-2.96085636,-28.971808302484007,10.78273716259341,FallGuys,1884.663116,AA04021030
1884.683098,0.5002000000000002,0.5150000000000001,-1.14,-25.65000000000001,568.3500000000001,3.016000000000001,3.0180000000000007,-0.8391792825388,9.692143637150767,-2.390571477444021,-3.86556247,-27.747451974017853,11.867827140300516,FallGuys,1884.683098,AA04021030
1884.703189,0.4957000000000001,0.5162000000000002,4.180000000000001,-26.540000000000006,568.2200000000001,3.008000000000001,3.021000000000001,-0.8475591041903999,9.530305720770809,-2.4351108443019047,-4.24688488,-26.611488338025925,11.458203734702844,FallGuys,1884.703189,AA04021030
1884.723169,0.4884000000000001,0.5198000000000002,12.850000000000003,-29.100000000000005,567.8800000000001,2.9900000000000007,2.9970000000000008,-0.7092920469389999,9.62601069813914,-2.569272703960689,-4.50857673,-24.95404660096269,13.070398402843573,FallGuys,1884.723169,AA04021030
1884.743261,0.5339000000000002,0.4922000000000001,-27.040000000000006,-6.3900000000000015,373.4100000000001,2.8040000000000007,2.9850000000000008,-0.5213446184674,9.937525260856896,-2.7101427348130844,-4.28426943,-23.35355272349297,13.120044292691112,FallGuys,1884.743261,AA04021030
1884.763243,0.5044000000000002,0.5005000000000002,-12.18,-32.370000000000005,1159.4800000000002,2.898000000000001,2.9810000000000008,-0.3238202509653999,9.92915629185246,-2.781183626428372,-5.06186807,-20.30180052716283,12.517238001482257,FallGuys,1884.763243,AA04021030
1884.783334,0.4958000000000002,0.4772000000000002,9.12,-0.6300000000000001,1159.2800000000002,2.8420000000000005,2.9290000000000007,-0.2376277996918,9.849963867313456,-2.7478286232925138,-5.15159099,-18.13544360480685,12.06440855067546,FallGuys,1884.783334,AA04021030
1884.803315,0.5251000000000001,0.3914000000000001,-60.23000000000001,117.35000000000002,1153.2400000000002,,3.008000000000001,-0.3004764620787999,10.024976380316875,-2.6816123695800806,-5.63759014,-16.018123685646408,10.949334756713892,FallGuys,1884.803315,AA04021030
1884.823407,0.5383000000000002,0.3834000000000001,-42.400000000000006,59.38000000000001,531.7100000000002,2.8160000000000007,2.976000000000001,-0.3669164766022,9.608752385955006,-2.7253182877563176,-6.73669591,-14.057463694848714,10.463788053977956,FallGuys,1884.823407,AA04021030
1884.843387,0.5473000000000001,0.3898000000000001,-37.39000000000001,39.57000000000001,378.8300000000001,2.9790000000000005,2.9810000000000008,-0.2597744711996,9.614555779724354,-2.59437477396137,-5.233837,-13.332572929254766,9.1631154621716,FallGuys,1884.843387,AA04021030
1884.863479,0.5474000000000002,0.3928000000000001,-35.14000000000001,35.800000000000004,354.82000000000005,2.9980000000000007,2.988000000000001,-0.2370292410024,9.309696731974752,-2.5344704268552767,-3.55153225,-11.440444964627092,5.909738386576647,FallGuys,1884.863479,AA04021030
1884.88346,0.5428000000000002,0.3952000000000001,-31.770000000000007,34.77000000000001,355.0200000000001,,2.972000000000001,-0.2855124948438,9.328245149605326,-2.4759960683613387,-0.9719983,-10.270983920215116,4.506925511998707,FallGuys,1884.88346,AA04021030
1884.903551,0.5417000000000002,0.3962000000000001,-30.930000000000007,34.31000000000001,355.08000000000004,,2.9780000000000006,-0.3932530589358,9.421655568817922,-2.410792678843609,1.74212003,-8.949637406828453,3.782715606540108,FallGuys,1884.903551,AA04021030
1884.923532,0.5379000000000002,0.4007000000000001,-28.170000000000005,32.400000000000006,355.31000000000006,,2.9980000000000007,-0.4519118104969999,9.512867530687029,-2.1284984724020117,2.18325772,-7.6354273692618175,2.9530073249369906,FallGuys,1884.923532,AA04021030
1884.943624,0.5374000000000002,0.4024000000000001,-27.760000000000005,31.680000000000007,355.39000000000004,,3.000000000000001,-0.5638422854148,9.435363788114676,-2.130382468079355,1.72716621,-5.891451141772874,2.13132074791335,FallGuys,1884.943624,AA04021030
1884.963605,0.5367000000000002,0.4049000000000001,-27.280000000000005,30.660000000000007,355.50000000000006,,2.999000000000001,-0.6865468167418,9.416051400998722,-2.106083775291478,2.97581018,-4.787928415602633,3.654867928431636,FallGuys,1884.963605,AA04021030
1884.983696,0.5343000000000002,0.4079000000000001,-25.510000000000005,29.370000000000005,355.63000000000005,,2.996000000000001,-0.6721814081962,9.424740593455102,-2.2033919326126363,3.74593191,-5.511939728350104,6.002574550587048,FallGuys,1884.983696,AA04021030
1885.003677,0.5331000000000001,0.4091000000000001,-24.620000000000005,28.850000000000005,355.6700000000001,,3.003000000000001,-0.5632437267254,9.357427360693904,-2.148696626658399,5.36094447,-6.952604181661991,8.143344920920944,FallGuys,1885.003677,AA04021030
1885.02377,0.5297000000000002,0.4186000000000001,-22.15000000000001,24.820000000000004,355.94000000000005,,3.007000000000001,-0.5692293136194,9.163602899692789,-2.139318367932042,7.08811068,-7.85729010998652,8.27449027074495,FallGuys,1885.02377,AA04021030
1885.04375,0.5351000000000001,0.4294000000000001,-21.590000000000003,16.710000000000004,292.56000000000006,2.9850000000000008,2.9630000000000005,-0.5494768768692,9.147854316348834,-2.1212845626909305,9.41342969,-8.870406442841368,8.291092140031786,FallGuys,1885.04375,AA04021030
1885.063841,0.5185000000000002,0.4229000000000001,-16.910000000000004,28.050000000000004,436.1400000000001,2.8340000000000005,2.928000000000001,-0.4142026130648,9.29030149254458,-2.2831277784701034,12.3369015,-10.855524513579438,11.25083297945357,FallGuys,1885.063841,AA04021030
1885.083822,0.5156000000000002,0.4142000000000001,-14.180000000000003,32.440000000000005,435.6400000000001,,2.9510000000000005,-0.2142840108052,9.71180631918751,-2.298065835655692,13.41357654,-11.77251434331399,13.769505580396965,FallGuys,1885.083822,AA04021030
1885.103914,0.5090000000000001,0.4221000000000001,-5.740000000000001,19.72,303.6000000000001,2.753000000000001,3.0760000000000005,0.0353149626746,9.65811546594257,-2.467173092291715,11.52939522,-12.09943784337013,15.360141098197936,FallGuys,1885.103914,AA04021030
1885.123895,0.4905000000000001,0.4036000000000001,6.170000000000001,26.22000000000001,304.18000000000006,2.815000000000001,3.121000000000001,0.1113319162284,10.10735350477809,-2.694226721914261,9.74241373,-11.412531051650882,14.923664497442736,FallGuys,1885.123895,AA04021030
