timestamp_x,gaze2d_x,gaze2d_y,gaze3d_x,gaze3d_y,gaze3d_z,pupil_left,pupil_right,ts_rel,timestamp_y,accel_x,accel_y,accel_z,gyro_x,gyro_y,gyro_z,juego,timestamp_abs,participant
0.001726,0.46120000000000017,0.5986000000000002,64.64000000000001,-119.64000000000003,822.8800000000001,3.931000000000001,4.050000000000001,0.0,0.007991,0.6655972626128,9.423921780431249,-2.5930178390182648,6.534819339999999,-0.38628957851870405,4.332143832758133,Sonic,0.001726,HP15011600
0.021818,0.4611000000000001,0.5986000000000002,64.79,-119.86000000000003,824.0700000000002,3.925000000000001,4.047000000000001,0.020092,0.024552,0.670385732128,9.438120302434422,-2.5837972112016083,6.2806044,-0.3394764207014038,4.444496566702248,Sonic,0.021817999999999997,HP15011600
0.041799,0.46100000000000013,0.5982000000000002,65.04,-119.64000000000003,825.5500000000002,3.922000000000001,4.044000000000001,0.040073000000000004,0.041113,0.6817583472266001,9.474069227347783,-2.5816474978441257,6.25817367,-0.45246536416972816,4.5602404928044855,Sonic,0.041799,HP15011600
0.061891,0.46100000000000013,0.5982000000000002,65.01000000000002,-119.52000000000002,824.8600000000001,3.917000000000001,4.038000000000001,0.060165,0.065954,0.7086934882496,9.491845726394162,-2.5872618020751634,5.85442053,-0.277117892195634,4.629984516365523,Sonic,0.061891,HP15011600
0.081871,0.4611000000000001,0.5984000000000002,65.25000000000001,-120.44000000000003,829.6200000000001,3.910000000000001,4.027000000000001,0.080145,0.082515,0.6877439341206,9.496207145593166,-2.595532020567742,5.42823666,0.004364165447187096,4.623661295821596,Sonic,0.081871,HP15011600
0.101964,0.46140000000000014,0.5984000000000002,63.930000000000014,-119.07000000000002,820.0400000000002,3.906000000000001,4.023000000000001,0.100238,0.099076,0.6518304127566,9.489011783779327,-2.617867902223425,5.01700661,0.155757371864367,4.652633264088831,Sonic,0.101964,HP15011600
0.121943,0.46170000000000017,0.5988000000000002,62.49000000000001,-117.72000000000003,808.3800000000001,3.905000000000001,4.017000000000001,0.12021699999999999,0.123918,0.6338736520746,9.431660101176963,-2.545096271214457,4.20202342,-0.129292923688467,4.606207296560498,Sonic,0.121943,HP15011600
0.142036,0.46200000000000013,0.5994000000000002,61.140000000000015,-116.66000000000003,797.0100000000001,3.900000000000001,4.010000000000001,0.14031,0.140479,0.6781669950902001,9.492255826485971,-2.582453524756535,3.8580855599999997,-0.5088547636353509,4.8703404272107615,Sonic,0.142036,HP15011600
0.162016,0.46150000000000013,0.5989000000000002,63.58000000000001,-119.15000000000002,817.3100000000002,3.899000000000001,4.011000000000001,0.16029,0.16532,0.6721814081962,9.500576976277575,-2.58361030897632,3.23750203,-0.6664661183279189,4.812114372655864,Sonic,0.162016,HP15011600
0.182109,0.44660000000000016,0.5423000000000002,97.65000000000002,-70.22000000000001,886.4100000000002,3.8520000000000008,4.047000000000001,0.180383,0.181881,0.7051021361131999,9.540587494381585,-2.5853835681836195,2.60944159,-0.6772428055413089,5.013147693007607,Sonic,0.182109,HP15011600
0.202089,0.44120000000000015,0.42600000000000016,109.12000000000002,51.35000000000001,882.3700000000001,3.9690000000000007,4.080000000000001,0.20036299999999999,0.198442,0.6949266383934,9.578151585205958,-2.6245765358036226,1.72716621,-0.617816305421343,5.076955686313686,Sonic,0.202089,HP15011600
0.222181,0.4440000000000001,0.4022000000000001,89.07000000000002,65.15,753.3400000000001,3.987000000000001,4.070000000000001,0.22045499999999998,0.223284,0.6835540232948,9.502551310981367,-2.6146265092163885,0.32150713,-0.2441904957294181,4.92874352751755,Sonic,0.222181,HP15011600
0.242161,0.44330000000000014,0.39900000000000013,90.44000000000001,68.23000000000002,755.6000000000001,3.984000000000001,4.102000000000001,0.24043499999999998,0.239845,0.6745756429538,9.454717432504404,-2.609354550807321,-0.17196893,-0.33651129353041176,5.177685378983124,Sonic,0.242161,HP15011600
0.262255,0.44330000000000014,0.40100000000000013,91.48000000000002,67.24000000000001,764.6100000000001,3.956000000000001,4.112000000000001,0.260529,0.264686,0.691335286257,9.410707313693779,-2.540030687701096,-0.19439966,-0.353434155535839,4.990183728478684,Sonic,0.262255,HP15011600
0.282234,0.4435000000000001,0.40040000000000014,88.61000000000001,65.92000000000002,743.3300000000002,3.950000000000001,4.122000000000001,0.280508,0.281247,0.7254531315528,9.405593448581,-2.5065113670965617,-0.19439966,-0.30443025112548283,5.040919215709776,Sonic,0.282234,HP15011600
0.302326,0.4435000000000001,0.40050000000000013,90.79000000000002,67.40000000000002,761.6800000000002,3.9650000000000007,4.132000000000001,0.3006,0.306089,0.739219981409,9.39089402507298,-2.4403580306413417,0.26169185,0.0869316758479679,4.904225025919779,Sonic,0.302326,HP15011600
0.322306,0.44360000000000016,0.40240000000000015,90.38000000000002,65.49000000000001,759.2700000000001,3.972000000000001,4.133000000000001,0.32058,0.32265,0.715277633833,9.335700467313504,-2.383343394461734,0.64301426,0.367849497449931,4.607551689092268,Sonic,0.322306,HP15011600
0.342398,0.4435000000000001,0.4033000000000001,90.31000000000002,64.54,757.8200000000002,3.9730000000000008,4.136000000000001,0.340672,0.339211,0.6877439341206,9.329291197355067,-2.3501606578933703,1.31593616,0.5101645006892701,4.12630873014612,Sonic,0.342398,HP15011600
0.362379,0.4434000000000001,0.4048000000000001,89.68000000000002,62.680000000000014,751.7800000000002,3.980000000000001,4.136000000000001,0.360653,0.364052,0.6979194318404001,9.337470614434608,-2.265616997103862,2.37765738,0.4085884539585451,3.9720885676116753,Sonic,0.362379,HP15011600
0.382471,0.44360000000000016,0.40590000000000015,89.17000000000002,61.530000000000015,749.4100000000002,3.9810000000000008,4.132000000000001,0.380745,0.380613,0.6931309623252,9.375257903125501,-2.2375450135620847,2.990764,0.359407503796299,4.028405993593947,Sonic,0.382471,HP15011600
0.402452,0.44360000000000016,0.40740000000000015,88.97000000000001,60.15000000000001,748.9200000000002,3.983000000000001,4.133000000000001,0.40072599999999997,0.405455,0.6997151079086,9.386879788708573,-2.237567598318697,3.94780848,0.29559951049022104,4.087832493713913,Sonic,0.402452,HP15011600
0.422543,0.44370000000000015,0.40840000000000015,88.38000000000002,58.96000000000001,745.2300000000001,3.990000000000001,4.131000000000001,0.420817,0.422016,0.6925324036358,9.395582692049569,-2.2167760162179944,4.68054566,0.14731537821073504,4.07348756859051,Sonic,0.422543,HP15011600
0.442524,0.44390000000000013,0.40940000000000015,88.24000000000002,58.21000000000001,745.8000000000002,3.990000000000001,4.133000000000001,0.44079799999999997,0.438577,0.6919338449464,9.434823941268991,-2.23368403348134,5.0693449799999994,-0.06350432832641095,3.980707607017197,Sonic,0.442524,HP15011600
0.462616,0.4440000000000001,0.4103000000000001,88.25000000000001,57.56000000000001,748.1700000000002,3.996000000000001,4.137000000000001,0.46089,0.463418,0.6841525819841999,9.492698647746229,-2.243537959256324,5.58525177,-0.1400307362036941,3.836450876420043,Sonic,0.462616,HP15011600
0.482597,0.44420000000000015,0.41140000000000015,88.10000000000002,56.73000000000001,749.8400000000001,4.001000000000001,4.132000000000001,0.480871,0.482298,,,,,,,Sonic,0.482597,HP15011600
0.502689,0.44460000000000016,0.4117000000000001,88.18000000000002,56.91000000000001,755.9200000000002,4.006000000000001,4.131000000000001,0.500963,0.504821,0.7068978121813999,9.549526844087136,-2.252557511576486,5.26374464,-0.03735931617644106,3.959862415597977,Sonic,0.502689,HP15011600
0.522669,0.4460000000000001,0.4142000000000001,91.02000000000002,57.91000000000001,800.4000000000002,4.009000000000001,4.122000000000001,0.520943,0.521382,0.694328079704,9.549388223461264,-2.244572945821052,5.12916026,0.008253396075792008,3.850795801543446,Sonic,0.522669,HP15011600
0.542762,0.4465000000000001,0.41540000000000016,91.35000000000002,57.500000000000014,810.4200000000002,4.012000000000001,4.1240000000000006,0.541036,0.546224,0.6769698777114,9.506905581234808,-2.214125401355667,4.6356842,0.06979866930546297,4.212267432705024,Sonic,0.542762,HP15011600
0.562741,0.44660000000000016,0.4158000000000001,91.06000000000002,57.09000000000001,809.8700000000001,4.011000000000001,4.122000000000001,0.561015,0.562785,0.6596116757188001,9.55139931619288,-2.2725373049789797,4.42633072,-0.12197940211655123,4.6046527594916515,Sonic,0.562741,HP15011600
0.582834,0.44670000000000015,0.4167000000000001,90.45000000000002,55.99000000000001,806.1400000000001,4.018000000000001,4.119000000000001,0.581108,0.583678,,,,,,,Sonic,0.582834,HP15011600
0.602814,0.44680000000000014,0.41750000000000015,89.50000000000001,54.77000000000001,799.4800000000001,4.018000000000001,4.125000000000001,0.601088,0.604188,0.6739770842644001,9.538637469360836,-2.2404520098459697,4.01510067,-0.21292270860058804,4.967961045742506,Sonic,0.602814,HP15011600
0.622906,0.44680000000000014,0.4183000000000001,89.30000000000001,53.860000000000014,796.9900000000001,4.018000000000001,4.120000000000001,0.62118,0.620749,0.6476405019307999,9.441535686935383,-2.22226011130857,3.92537775,-0.21539557321407277,4.884403234313736,Sonic,0.622906,HP15011600
0.642886,0.44680000000000014,0.41900000000000015,88.65000000000002,52.88000000000001,792.6200000000001,4.022000000000001,4.119000000000001,0.64116,0.64559,0.6428520324156,9.453824978804995,-2.1961115311715615,4.4562383599999995,-0.12692513134352124,4.437537136634112,Sonic,0.642886,HP15011600
0.662979,0.44690000000000013,0.41960000000000014,87.73000000000002,51.89000000000001,785.8200000000002,4.021000000000001,4.121000000000001,0.661253,0.662151,0.649436177999,9.493176502107874,-2.203864025188482,4.97214515,-0.08286695616013495,4.321157001007665,Sonic,0.662979,HP15011600
0.682959,0.4470000000000001,0.42000000000000015,87.25000000000001,51.23000000000001,781.9700000000001,4.023000000000001,4.121000000000001,0.681233,0.685118,,,,,,,Sonic,0.682959,HP15011600
0.703051,0.44710000000000016,0.42070000000000013,86.58000000000001,50.30000000000001,777.8400000000001,4.024000000000001,4.117000000000001,0.701325,0.703554,0.6781669950902001,9.434883284053424,-2.2190103068161275,5.8992819899999995,-0.45801420413571914,5.073564494155563,Sonic,0.703051,HP15011600
0.723032,0.4470000000000001,0.42100000000000015,86.34000000000002,49.85000000000001,774.0900000000001,4.027000000000001,4.118000000000001,0.721306,0.720115,0.6937295210146001,9.410168729387939,-2.21436899666578,6.27312749,-0.756491097267318,5.251666948763571,Sonic,0.723032,HP15011600
0.743123,0.4470000000000001,0.42160000000000014,85.67000000000002,48.970000000000006,769.0100000000001,4.026000000000001,4.1160000000000005,0.741397,0.744956,0.7200661033482001,9.415135562389443,-2.2600956815988806,6.729219,-1.1532579172400577,5.183123370767602,Sonic,0.743123,HP15011600
0.763104,0.4470000000000001,0.42120000000000013,84.65000000000002,48.70000000000001,759.1500000000001,4.029000000000001,4.117000000000001,0.761378,0.761517,0.7883017939397999,9.473618332368789,-2.258452169145456,6.78155737,-0.9271749580348709,5.203863489918282,Sonic,0.763104,HP15011600
0.783196,0.44690000000000013,0.42150000000000015,83.99000000000002,47.93000000000001,751.4000000000001,4.029000000000001,4.107000000000001,0.78147,0.786359,0.7763306201518,9.499868775103847,-2.281777867852642,6.392758049999999,-0.49691072964208194,4.279217598933983,Sonic,0.783196,HP15011600
0.803177,0.44690000000000013,0.42170000000000013,83.60000000000002,47.540000000000006,749.1000000000001,4.035000000000001,4.103000000000001,0.801451,0.80292,0.751191155197,9.480248150494136,-2.2733238592209695,5.8992819899999995,-0.10116730948251906,4.019288915717943,Sonic,0.803177,HP15011600
0.823268,0.44710000000000016,0.42210000000000014,83.51000000000002,47.31000000000001,750.6700000000002,4.037000000000001,4.1080000000000005,0.821542,0.819481,0.7565781834016,9.455980453948278,-2.260822430669852,5.8319898,0.03192554361227706,3.746392798695456,Sonic,0.823268,HP15011600
0.843249,0.44720000000000015,0.42170000000000013,82.84000000000002,47.32000000000001,745.6400000000001,4.038000000000001,4.1000000000000005,0.841523,0.844322,0.7206646620376,9.526467325446676,-2.3639229205753427,6.54977316,0.562526498472561,3.7253374627391582,Sonic,0.843249,HP15011600
0.863341,0.44730000000000014,0.42170000000000013,83.04000000000002,47.59000000000001,749.2200000000001,4.037000000000001,4.099000000000001,0.861615,0.860883,0.760169535538,9.455307285875937,-2.2582316209785427,6.78155737,0.7067832290697149,3.6488110548618744,Sonic,0.863341,HP15011600
0.883321,0.44740000000000013,0.42120000000000013,82.61000000000001,47.91000000000001,747.1000000000001,4.039000000000001,4.082000000000001,0.881595,0.885725,0.7218617794164,9.538326582167473,-2.305250598671104,6.88623411,0.8587075727425649,3.356624283489015,Sonic,0.883321,HP15011600
0.903413,0.44790000000000013,0.42070000000000013,81.30000000000001,48.040000000000006,741.8200000000002,4.026000000000001,4.084000000000001,0.901687,0.902286,0.6781669950902001,9.559177507052606,-2.2992797753468897,6.68435754,0.909797151477438,3.093514552651929,Sonic,0.903413,HP15011600
0.923394,0.4480000000000001,0.42050000000000015,81.62000000000002,48.44000000000001,745.8700000000001,4.034000000000001,4.094000000000001,0.921668,0.927127,0.6141212153244,9.527394687627552,-2.2674349634377995,6.0637740099999995,0.7112035969539899,2.55478682094363,Sonic,0.923394,HP15011600
0.943486,0.44830000000000014,0.4204000000000001,81.19000000000001,48.63000000000001,746.7800000000002,4.048000000000001,4.096000000000001,0.94176,0.943688,0.5482797594904,9.536431525305115,-2.296892690851682,5.86189744,0.7376307271243889,2.679116687666202,Sonic,0.943486,HP15011600
0.963466,0.44870000000000015,0.42020000000000013,81.50000000000001,49.32000000000001,754.9300000000002,4.048000000000001,4.095000000000001,0.96174,0.960249,0.5135633555052,9.49291919591314,-2.2252269127634734,5.6076825,0.32821169015082,3.62990759080047,Sonic,0.963466,HP15011600
0.983559,0.44910000000000017,0.4203000000000001,81.56000000000002,49.68000000000001,761.8300000000002,4.046000000000001,4.099000000000001,0.981833,0.985091,0.5554624637632,9.489757080747543,-2.23434567798208,5.8992819899999995,-0.2493463694934659,4.257171961949697,Sonic,0.983559,HP15011600
1.003539,0.44930000000000014,0.42060000000000014,81.96000000000002,49.96000000000001,769.3100000000002,4.047000000000001,4.104000000000001,1.001813,1.001652,0.5788062526498,9.457292681764743,-2.220101986465681,6.13854311,-0.5142596566346402,4.665102659424795,Sonic,1.003539,HP15011600
1.02363,0.45650000000000013,0.4702000000000002,90.56000000000002,6.440000000000001,999.6400000000002,4.027000000000001,4.208000000000001,1.0219040000000001,1.026494,0.574616341824,9.424367251391113,-2.2051483688491236,6.93109557,-1.093051260629181,4.459438826651697,Sonic,1.02363,HP15011600
1.043611,0.4576000000000002,0.5756000000000002,61.33000000000001,-84.06000000000002,710.6400000000001,4.132000000000001,4.255000000000001,1.0418850000000002,1.043055,0.6183111261502,9.4061239591681,-2.170062163932997,7.432048539999999,-1.377078156368838,4.741485120335376,Sonic,1.043611,HP15011600
1.063703,0.46070000000000016,0.6325000000000002,63.08000000000001,-148.50000000000003,799.8200000000002,4.099000000000001,4.156000000000001,1.0619770000000002,1.059616,0.6147197740138,9.41980210699601,-2.174805336681395,7.82832477,-1.4026589324779501,5.05268042803818,Sonic,1.063703,HP15011600
1.083684,0.46190000000000014,0.6375000000000002,61.80000000000001,-155.07000000000002,809.5600000000002,4.086000000000001,4.138000000000001,1.0819580000000002,1.084458,0.6919338449464,9.501865232177666,-2.17450239858685,8.0750628,-1.5580464417922737,5.544345982693938,Sonic,1.083684,HP15011600
1.103775,0.46200000000000013,0.6381000000000002,63.97000000000001,-161.87000000000003,841.7200000000001,4.101000000000001,4.129000000000001,1.102049,1.101019,0.7164747512118,9.550267766429313,-2.2202826645185816,7.97038606,-1.4091260999885793,5.489760139532403,Sonic,1.103775,HP15011600
1.123756,0.4621000000000001,0.6380000000000002,62.710000000000015,-158.81000000000003,826.5700000000002,4.103000000000001,4.143000000000001,1.12203,1.12586,0.7009122252874,9.602061837885467,-2.345110972577647,8.15730881,-0.8169078984152729,5.470895550169161,Sonic,1.123756,HP15011600
1.143848,0.46180000000000015,0.6370000000000002,60.67000000000001,-151.47000000000003,792.8800000000001,4.098000000000001,4.199000000000001,1.142122,1.142421,0.7559796247122,9.500892700483561,-2.294234126890535,7.37223326,-1.210670716518858,5.164751043961866,Sonic,1.143848,HP15011600
1.163828,0.46130000000000015,0.6366000000000002,62.74000000000001,-154.12000000000003,808.7800000000002,4.104000000000001,4.196000000000001,1.1621020000000002,1.167263,0.7080949295601999,9.636455402058832,-2.413614635500256,7.5068176399999995,-0.8314629680757539,5.114723739738333,Sonic,1.163828,HP15011600
1.183921,0.46140000000000014,0.6369000000000002,61.02000000000001,-150.71000000000004,789.4400000000002,4.110000000000001,4.205000000000001,1.182195,1.183824,0.7446070096135999,9.528644922959984,-2.290342150567772,6.7965111899999995,-0.694801877070945,4.894576810788105,Sonic,1.183921,HP15011600
1.203901,0.46150000000000013,0.6369000000000002,61.22000000000001,-151.23000000000002,792.3100000000002,4.094000000000001,4.204000000000001,1.2021750000000002,1.200385,0.7380228640302,9.601188056703219,-2.398163228465047,6.37780423,-0.813654877310877,4.766960824175949,Sonic,1.203901,HP15011600
1.223993,0.46170000000000017,0.6371000000000002,59.65000000000001,-148.48000000000002,777.0000000000001,4.102000000000001,4.210000000000001,1.2222670000000002,1.225226,0.7080949295601999,9.555797955806288,-2.404425466312206,5.68992851,-0.36244038523032907,4.120687916696777,Sonic,1.223993,HP15011600
1.243974,0.46180000000000015,0.6367000000000002,59.70000000000001,-148.57000000000002,779.2900000000002,4.120000000000001,4.230000000000001,1.242248,1.241787,0.7057006948026,9.511208120035967,-2.3637391304362483,5.09925262,-0.41190345341300405,4.031830284537258,Sonic,1.243974,HP15011600
1.264066,0.46190000000000014,0.6371000000000002,59.81000000000001,-149.58000000000004,782.8500000000001,4.131000000000001,4.230000000000001,1.26234,1.266629,0.6829554646053999,9.54600026072954,-2.369910566870369,4.89737605,-0.2341881890939641,3.9329041481719083,Sonic,1.264066,HP15011600
1.284046,0.46180000000000015,0.6376000000000002,59.710000000000015,-149.66000000000003,780.5400000000002,4.137000000000001,4.232000000000001,1.2823200000000001,1.28319,0.6895396101888,9.534621508069996,-2.3399550500378354,4.59082274,-0.167730285422511,3.849982546267347,Sonic,1.284046,HP15011600
1.304138,0.46180000000000015,0.6380000000000002,60.140000000000015,-150.93000000000004,785.3400000000001,4.142000000000001,4.238000000000001,1.3024120000000001,1.308031,0.6578159996506,9.545878463074484,-2.3215421409469346,4.29922325,-0.061418654001893946,3.666862388949018,Sonic,1.304138,HP15011600
1.324118,0.46200000000000013,0.6387000000000002,60.10000000000001,-152.46000000000004,789.9500000000002,4.152000000000001,4.250000000000001,1.322392,1.324592,0.634472210764,9.53907326629545,-2.3017377261981293,3.94033157,-0.020364480687662945,3.788083181533896,Sonic,1.324118,HP15011600
1.344211,0.4621000000000001,0.6391000000000002,60.05000000000001,-153.06000000000003,791.1600000000002,4.161000000000001,4.261000000000001,1.3424850000000002,1.341153,0.6207053609078,9.54215610361961,-2.269960668558877,3.8356548299999997,-0.09314560490304291,3.5895227257956357,Sonic,1.344211,HP15011600
1.364191,0.46190000000000014,0.6397000000000002,61.79000000000001,-157.10000000000002,809.0100000000001,4.221000000000001,4.269000000000001,1.362465,1.365995,0.6021500415364,9.493680053312325,-2.2302840847914283,3.59639371,-0.315765398466756,3.369303823362057,Sonic,1.364191,HP15011600
1.384284,0.46170000000000017,0.6394000000000002,62.70000000000001,-158.68000000000004,818.4900000000001,4.224000000000001,4.278000000000001,1.3825580000000002,1.382556,0.592573102506,9.416097032898534,-2.209509788048126,3.57396298,-0.4195321917905369,3.2767009075406337,Sonic,1.384284,HP15011600
1.404264,0.46200000000000013,0.6406000000000002,61.500000000000014,-157.90000000000003,808.3600000000001,4.228000000000001,4.316000000000001,1.402538,1.407397,0.5895803090589999,9.32474817532999,-2.1815259562197804,4.36651544,-0.4305909970243559,3.3325591697505867,Sonic,1.404264,HP15011600
1.424356,0.45940000000000014,0.6426000000000002,62.97000000000001,-152.81000000000003,772.7500000000001,4.232000000000001,4.323000000000001,1.42263,1.423958,0.601551482847,9.302375535646489,-2.177382435488085,4.94971442,-0.409640733336597,3.610932153255714,Sonic,1.424356,HP15011600
1.444336,0.45870000000000016,0.6445000000000002,63.530000000000015,-153.42000000000002,766.9000000000002,4.234000000000001,4.321000000000001,1.4426100000000002,1.440519,0.625493830423,9.30966434857297,-2.1862748907539777,5.68992851,-0.3941673361314778,4.043348253543396,Sonic,1.444336,HP15011600
1.464429,0.45890000000000014,0.6444000000000002,65.43,-158.40000000000003,792.4100000000002,4.232000000000001,4.331000000000001,1.462703,1.465361,0.6081356284303999,9.374315905286828,-2.198793142275908,6.92361866,-0.39780754752484215,4.349879950039658,Sonic,1.464429,HP15011600
1.484408,0.45770000000000016,0.6459000000000003,64.88000000000001,-154.03000000000003,763.5900000000001,4.236000000000001,4.347000000000001,1.482682,1.481922,0.6075370697410001,9.421965993624699,-2.2193243060956847,7.6264482,-0.42660247004018703,4.394220243243474,Sonic,1.484408,HP15011600
1.504501,0.45780000000000015,0.6458000000000002,65.16000000000001,-154.76000000000002,767.4900000000001,4.239000000000001,4.342000000000001,1.5027750000000002,1.506763,0.6189096848396001,9.505717800773002,-2.254260366814342,8.23955482,-0.622053851640753,4.481628410602686,Sonic,1.504501,HP15011600
1.524481,0.4576000000000002,0.6455000000000002,66.20000000000002,-156.46000000000004,777.4300000000002,4.233000000000001,4.340000000000001,1.522755,1.523324,0.6422534737262,9.544365159761526,-2.2912358668070247,8.082539709999999,-0.8882395578303449,5.02742064464766,Sonic,1.524481,HP15011600
1.544573,0.45740000000000014,0.6451000000000002,67.36000000000001,-158.03000000000003,786.7900000000002,4.231000000000001,4.332000000000001,1.542847,1.548166,0.655421764893,9.455986215734079,-2.2895844052547814,7.858232409999999,-1.093090135327344,5.430228567143898,Sonic,1.544573,HP15011600
1.564553,0.45720000000000016,0.6453000000000002,68.18,-159.23000000000002,792.0300000000002,4.223000000000001,4.324000000000001,1.5628270000000002,1.564727,0.6578159996506,9.512958794486654,-2.3353504979153072,7.91057078,-1.0072365050369794,5.618366427172548,Sonic,1.564553,HP15011600
1.584645,0.45740000000000014,0.6449000000000003,69.35000000000001,-162.13000000000002,808.5600000000002,4.212000000000001,4.320000000000001,1.5829190000000002,1.581288,0.655421764893,9.53841162179471,-2.3566708656766804,7.82084786,-1.0067773412646601,5.656488572100975,Sonic,1.584645,HP15011600
1.604626,0.45650000000000013,0.6435000000000002,71.61000000000001,-162.72000000000003,818.1900000000002,4.179000000000001,4.313000000000001,1.6029000000000002,1.60613,0.6727799668856,9.520584191449304,-2.3455383580268543,7.35727944,-1.2111687549893395,6.09741863952564,Sonic,1.604626,HP15011600
1.624718,0.45650000000000013,0.6431000000000002,71.25000000000001,-161.48000000000002,813.8800000000001,4.182000000000001,4.303000000000001,1.6229920000000002,1.622691,0.7128833990754,9.529454061958585,-2.3498714306834447,7.21521815,-1.322570062603629,6.831984943123473,Sonic,1.624718,HP15011600
1.644699,0.45640000000000014,0.6422000000000002,71.96000000000001,-161.60000000000002,818.5300000000002,4.180000000000001,4.300000000000001,1.642973,1.647533,0.7841118831139999,9.535257918114517,-2.3455977008112856,6.699311359999999,-1.3762706770057138,6.147800035252953,Sonic,1.644699,HP15011600
1.664791,0.45650000000000013,0.6418000000000003,71.89000000000001,-161.52000000000004,820.3600000000001,4.173000000000001,4.296000000000001,1.663065,1.664094,0.7924917047656,9.532602003852977,-2.3321826209639087,6.46752715,-1.1632933226607,5.5674538941895655,Sonic,1.664791,HP15011600
1.684771,0.45630000000000015,0.6411000000000002,71.81000000000002,-160.04000000000002,816.0700000000002,4.169000000000001,4.290000000000001,1.6830450000000001,1.680655,0.7793234135988001,9.545403258412446,-2.312262170345847,6.16845075,-1.0176921995317771,4.993785065173884,Sonic,1.684771,HP15011600
1.704863,0.45620000000000016,0.6403000000000002,71.88000000000001,-158.69000000000003,813.2900000000002,4.162000000000001,4.283000000000001,1.7031370000000001,1.705496,0.7464026856818,9.601083082018974,-2.3094109423736118,5.1889755399999995,-0.8497964201833258,4.2013467985249315,Sonic,1.704863,HP15011600
1.724844,0.45610000000000017,0.6399000000000002,72.23000000000002,-158.75000000000003,815.6100000000001,4.162000000000001,4.271000000000001,1.7231180000000001,1.722057,0.7470012443712,9.50656323541284,-2.1840680219250825,4.62820729,-0.6554735106644759,3.533238398598552,Sonic,1.724844,HP15011600
1.744935,0.4560000000000001,0.6394000000000002,72.52000000000001,-158.74000000000004,817.7600000000001,4.158000000000001,4.261000000000001,1.743209,1.746899,0.7051021361131999,9.499192494945312,-2.2014711789074735,4.5609151,-0.35480587093982086,3.293518697277522,Sonic,1.744935,HP15011600
1.764916,0.45580000000000015,0.6400000000000002,72.27000000000001,-158.07000000000002,811.5300000000002,4.148000000000001,4.267000000000001,1.76319,1.76346,0.6685900560597999,9.45675502223208,-2.147779863275946,4.71793021,-0.14712833732555697,2.760162759783324,Sonic,1.764916,HP15011600
1.785008,0.45570000000000016,0.6397000000000002,72.40000000000002,-157.76000000000002,811.1700000000002,4.145000000000001,4.267000000000001,1.783282,1.788301,0.6207053609078,9.50447021514018,-2.1823992750154395,5.15159099,-0.01064429207263795,2.647068744046461,Sonic,1.785008,HP15011600
1.804988,0.45580000000000015,0.6398000000000003,72.50000000000001,-158.28000000000003,813.7200000000001,4.141000000000001,4.266000000000001,1.8032620000000001,1.804862,0.5991572480894,9.493747807582164,-2.195418428042215,5.3534675599999995,-0.040993751656829946,2.68409551567836,Sonic,1.804988,HP15011600
1.825081,0.45580000000000015,0.6404000000000002,72.03000000000002,-157.86000000000004,808.5500000000002,4.131000000000001,4.264000000000001,1.823355,1.821423,0.571623548377,9.51086531182741,-2.207011967082874,5.58525177,-0.16815057449666693,2.841070660846719,Sonic,1.825081,HP15011600
1.845061,0.45580000000000015,0.6409000000000002,72.12000000000002,-158.47000000000003,809.2700000000002,4.126000000000001,4.262000000000001,1.8433350000000002,1.846265,0.5530682290056,9.493716811340144,-2.2272322437092864,5.81703598,-0.40557445695610195,2.731013745764199,Sonic,1.845061,HP15011600
1.865153,0.4560000000000001,0.6413000000000002,72.43000000000002,-160.24000000000004,816.0600000000002,4.127000000000001,4.245000000000001,1.8634270000000002,1.862826,0.5458855247328,9.50596093369653,-2.2243274347384205,5.91423581,-0.358230161883132,2.522207740068219,Sonic,1.865153,HP15011600
1.885134,0.4560000000000001,0.6417000000000002,72.24000000000001,-160.25000000000003,814.2700000000002,4.129000000000001,4.246000000000001,1.8834080000000002,1.887667,0.5111691207476,9.503955602750716,-2.225125050165423,6.0413432799999995,-0.390350078986224,3.6297636438337677,Sonic,1.885134,HP15011600
1.905226,0.4560000000000001,0.6423000000000002,72.03000000000002,-160.27000000000004,811.4100000000002,4.128000000000001,4.249000000000001,1.9035000000000002,1.904228,0.5393013791494,9.499475497982852,-2.24620228500327,5.86189744,-0.622795133433501,4.298331207532467,Sonic,1.905226,HP15011600
1.925206,0.45590000000000014,0.6428000000000003,71.93000000000002,-160.50000000000003,810.0300000000002,4.122000000000001,4.250000000000001,1.92348,1.92907,0.5578566985208,9.49175400020795,-2.2537399926390775,6.16097384,-0.8182134162488792,4.997248230815358,Sonic,1.925206,HP15011600
1.945298,0.45580000000000015,0.6432000000000002,71.16000000000001,-158.89000000000004,799.8200000000002,4.120000000000001,4.256000000000001,1.943572,1.945631,0.5722221070664,9.48574376915631,-2.2848948135050158,6.250696759999999,-1.419758840235267,4.972231690747105,Sonic,1.945298,HP15011600
1.965279,0.45590000000000014,0.6435000000000002,71.07000000000001,-159.12000000000003,799.9000000000002,4.121000000000001,4.254000000000001,1.963553,1.962192,0.595565895953,9.450982624704753,-2.246909561403823,6.34041968,-1.7315903574622795,5.01558168292293,Sonic,1.965279,HP15011600
1.98537,0.45580000000000015,0.6436000000000002,71.19000000000001,-159.16000000000003,799.6300000000001,4.120000000000001,4.256000000000001,1.9836440000000002,1.987033,0.6709842908174,9.468648849667677,-2.2616793888812863,6.46005024,-1.6461958909442338,5.165597398023153,Sonic,1.98537,HP15011600
2.005351,0.45570000000000016,0.6437000000000002,71.13000000000001,-158.81000000000003,797.3100000000002,4.117000000000001,4.253000000000001,2.003625,2.00543,,,,,,,Sonic,2.005351,HP15011600
2.025443,0.45560000000000017,0.6436000000000002,71.56000000000002,-159.39000000000004,800.5400000000002,4.113000000000001,4.253000000000001,2.023717,2.028436,0.7104891643178,9.499444501740832,-2.278016100670342,6.38528114,-0.9151978252564139,5.224249517565183,Sonic,2.025443,HP15011600
2.045424,0.45560000000000017,0.6437000000000002,71.29000000000002,-158.78000000000003,797.2000000000002,4.112000000000001,4.250000000000001,2.043698,2.044997,0.6997151079086,9.517724551991664,-2.3100504645043265,6.48248097,-0.8364806707860748,5.306889001449315,Sonic,2.045424,HP15011600
2.065516,0.45560000000000017,0.6437000000000002,71.36000000000001,-158.64000000000004,796.5800000000002,4.1080000000000005,4.246000000000001,2.06379,2.061558,0.7290444836891999,9.482094925757073,-2.227209658952674,6.42266569,-0.705119400512016,5.133732276068277,Sonic,2.065516,HP15011600
2.085496,0.45560000000000017,0.6432000000000002,71.89000000000001,-159.41000000000003,802.5200000000002,4.098000000000001,4.229000000000001,2.08377,2.0864,0.7140805164542,9.62035871110711,-2.336761476243631,6.13854311,-0.9202486267519232,4.804905923352486,Sonic,2.085496,HP15011600
2.105588,0.45560000000000017,0.6434000000000002,72.07000000000001,-160.20000000000002,805.7500000000001,4.094000000000001,4.218000000000001,2.103862,2.106992,,,,,,,Sonic,2.105588,HP15011600
2.125568,0.45580000000000015,0.6436000000000002,71.01000000000002,-158.79000000000002,797.6500000000002,4.095000000000001,4.212000000000001,2.123842,2.127802,0.670385732128,9.663285099367,-2.2816330230543858,4.53100746,-1.0716029584709401,3.8051442145930503,Sonic,2.125568,HP15011600
2.145661,0.45570000000000016,0.6439000000000002,72.19000000000001,-161.29000000000002,808.6800000000002,4.074000000000001,4.208000000000001,2.143935,2.144364,0.6536260888248,9.609692534247328,-2.2573910233513335,4.1496850499999995,-0.8981972138546609,3.470171687085222,Sonic,2.145661,HP15011600
2.165641,0.45560000000000017,0.6443000000000002,71.67000000000002,-160.05000000000004,800.7700000000002,4.075000000000001,4.218000000000001,2.163915,2.169205,0.6386621215898001,9.486823925234264,-2.2049614666238355,3.0206716399999998,-1.275247314489897,2.8470728886720544,Sonic,2.165641,HP15011600
2.185733,0.45560000000000017,0.6447000000000002,72.05000000000001,-161.21000000000004,804.6600000000002,4.072000000000001,4.211000000000001,2.184007,2.185766,0.6392606802792,9.440738071508381,-2.2202547803627564,3.0206716399999998,-1.0052832258532138,2.8584857854096533,Sonic,2.185733,HP15011600
2.205714,0.45560000000000017,0.6448000000000002,72.48000000000002,-162.51000000000002,810.7500000000001,4.072000000000001,4.204000000000001,2.203988,2.208555,,,,,,,Sonic,2.205714,HP15011600
2.225806,0.45540000000000014,0.6463000000000002,71.92000000000002,-161.86000000000004,800.3000000000002,4.067000000000001,4.189000000000001,2.22408,2.227169,0.5788062526498,9.358422939531206,-2.144012796694433,3.738455,-0.235172714208978,2.6336421464676962,Sonic,2.225806,HP15011600
2.245786,0.4555000000000001,0.6467000000000002,72.64000000000001,-164.43000000000004,810.6600000000002,4.067000000000001,4.195000000000001,2.2440599999999997,2.24373,0.5291258814295999,9.399202726519809,-2.1306512978456875,4.35903853,-0.020148560237610025,2.71024052782833,Sonic,2.245786,HP15011600
2.265878,0.4555000000000001,0.6463000000000002,73.05000000000001,-164.94000000000003,815.5400000000002,4.066000000000001,4.196000000000001,2.2641519999999997,2.268571,0.475854158073,9.54420614169206,-2.1192494980429415,4.9347606,-0.474544099939203,3.701167276732191,Sonic,2.265878,HP15011600
2.285859,0.45560000000000017,0.6474000000000002,72.93000000000002,-166.17000000000004,816.1800000000002,4.068000000000001,4.184000000000001,2.2841329999999997,2.285132,0.4465247822924,9.428207834028264,-2.100712603983966,5.22636009,-1.114919851861578,4.104821553289716,Sonic,2.285859,HP15011600
2.30595,0.4555000000000001,0.6478000000000002,73.06000000000002,-166.13000000000002,814.1000000000001,4.072000000000001,4.187000000000001,2.304224,2.309974,0.338185659511,9.416478786447929,-2.1875614217276387,6.43761951,-2.4098061362926533,5.564870181394566,Sonic,2.30595,HP15011600
2.325931,0.45520000000000016,0.6483000000000002,73.28000000000002,-166.21000000000004,812.2000000000002,4.075000000000001,4.194000000000001,2.324205,2.326535,0.3016735794576,9.360886652168245,-2.192879012036519,7.267556519999999,-3.7618562007672876,6.540212684911793,Sonic,2.325931,HP15011600
2.346023,0.45490000000000014,0.6488000000000002,73.37000000000002,-165.90000000000003,808.1500000000002,4.078000000000001,4.195000000000001,2.344297,2.343096,0.32980583785940004,9.341953368902079,-2.1955858575970844,7.9330015099999995,-5.024910462028674,8.329828947525183,Sonic,2.346023,HP15011600
2.366004,0.45460000000000017,0.6491000000000002,74.46000000000001,-167.49000000000004,814.2100000000002,4.073000000000001,4.191000000000001,2.364278,2.367937,0.39026026548880005,9.242354227897964,-2.2092954640536004,9.05453801,-6.579377114084984,10.76232692545962,Sonic,2.366004,HP15011600
2.386096,0.45430000000000015,0.6487000000000002,75.58000000000001,-168.28000000000003,820.0600000000002,4.078000000000001,4.196000000000001,2.38437,2.384498,0.4662772190426,9.101641827955271,-2.312787043767068,10.333089619999999,-7.24173230542127,12.141434553715886,Sonic,2.386096,HP15011600
2.406076,0.45340000000000014,0.6490000000000002,75.26000000000002,-164.60000000000002,800.4900000000001,4.077000000000001,4.208000000000001,2.40435,2.40934,0.5135633555052,9.158781373876128,-2.383677791184885,12.785516099999999,-8.40572225926358,14.972502907927153,Sonic,2.406076,HP15011600
2.426168,0.45220000000000016,0.6473000000000002,76.07000000000002,-160.37000000000003,787.6000000000001,4.092000000000001,4.221000000000001,2.424442,2.425901,0.505782092543,9.36033931861033,-2.569712075368085,13.93696024,-9.645386491008912,16.51254110955076,Sonic,2.426168,HP15011600
2.446148,0.45120000000000016,0.6465000000000002,76.59000000000002,-157.31000000000003,776.2000000000002,4.084000000000001,4.219000000000001,2.444422,2.442462,0.5997558067788,9.4441925259701,-2.4890147590015275,13.854714229999999,-11.560577716521077,17.607582967369204,Sonic,2.446148,HP15011600
2.46624,0.4490000000000001,0.6419000000000002,84.35000000000002,-160.77000000000004,814.7800000000002,4.084000000000001,4.219000000000001,2.464514,2.467303,0.7853090004928,9.71980863268693,-2.5108829227074017,13.62293002,-12.223419394501896,16.754760998357487,Sonic,2.46624,HP15011600
2.486221,0.44720000000000015,0.6402000000000002,88.94000000000001,-162.09000000000003,829.6300000000001,4.085000000000001,4.213000000000001,2.484495,2.483864,0.9056192970622,9.76620848569237,-2.508506899397206,12.1125942,-12.031176383394588,14.818199220083404,Sonic,2.486221,HP15011600
2.506313,0.44580000000000014,0.6385000000000002,89.73000000000002,-157.45000000000002,814.3800000000001,4.094000000000001,4.212000000000001,2.504587,2.508706,1.0390978847984,9.68516928589043,-2.5212660965296436,9.86204429,-10.481616585867085,11.247795878799227,Sonic,2.506313,HP15011600
2.526294,0.4429000000000001,0.6346000000000002,99.19000000000003,-160.87000000000003,851.9100000000002,4.113000000000001,4.198000000000001,2.524568,2.525267,1.0522661759652001,9.715025589824522,-2.449897032363593,8.71807706,-8.953931155484952,8.90507386056895,Sonic,2.526294,HP15011600
2.546385,0.44160000000000016,0.6321000000000002,104.43000000000002,-163.05000000000004,876.6900000000002,4.131000000000001,4.204000000000001,2.544659,2.550108,1.0696243779578,9.71421645082592,-2.3903677522479208,7.21521815,-6.7620596545902325,6.918031390211991,Sonic,2.546385,HP15011600
2.566366,0.4530000000000001,0.6363000000000002,75.40000000000002,-150.96000000000004,792.5100000000001,4.144000000000001,4.236000000000001,2.56464,2.566669,1.095362401602,9.666399395319766,-2.3447119336708515,5.92918963,-5.338218766928208,6.424285937144691,Sonic,2.566366,HP15011600
2.586458,0.45560000000000017,0.6330000000000002,69.08000000000001,-143.60000000000002,770.3100000000002,4.156000000000001,4.234000000000001,2.584732,2.58323,1.0989537537384,9.573192238916684,-2.305318352940941,5.13663717,-3.9671601661236298,5.322599866063725,Sonic,2.586458,HP15011600
2.606439,0.45650000000000013,0.6324000000000002,66.43,-140.49000000000004,756.6700000000002,4.148000000000001,4.230000000000001,2.604713,2.608072,1.0851869038822,9.47378529953707,-2.2835768239027483,4.04500831,-1.8590954958929218,3.804364058102139,Sonic,2.606439,HP15011600
2.62653,0.45750000000000013,0.6319000000000002,65.52000000000001,-141.46000000000004,764.4700000000001,4.146000000000001,4.222000000000001,2.6248039999999997,2.624633,1.0331122979044,9.391054768068873,-2.310050926890914,3.94780848,-0.8640304971252152,3.019560305743695,Sonic,2.62653,HP15011600
2.646511,0.4581000000000002,0.6324000000000002,65.42000000000002,-143.97000000000003,775.5000000000001,4.156000000000001,4.241000000000001,2.6447849999999997,2.649475,0.978643457169,9.404359573832796,-2.316550535875799,4.36651544,0.228301028670456,2.1529303247772185,Sonic,2.646511,HP15011600
2.666603,0.45820000000000016,0.6332000000000002,64.71000000000001,-143.32000000000002,768.1000000000001,4.155000000000001,4.240000000000001,2.6648769999999997,2.666036,0.9187875882290001,9.444992328710121,-2.31539640135562,4.37399235,0.905808624493269,2.031853479159042,Sonic,2.666603,HP15011600
2.686584,0.45790000000000014,0.6330000000000002,64.85000000000001,-142.64000000000001,765.0600000000002,4.236000000000001,4.258000000000001,2.6848579999999997,2.682597,0.8750928039028,9.441530387536172,-2.3201679206464303,4.40389999,1.0913685476398949,1.61021406608475,Sonic,2.686584,HP15011600
2.706675,0.45830000000000015,0.6340000000000002,62.99000000000001,-140.78000000000003,750.4100000000002,4.206000000000001,4.263000000000001,2.704949,2.707439,0.7817176483563999,9.45935516818197,-2.380254332965186,5.51048267,1.7824797867933633,1.157555885116869,Sonic,2.706675,HP15011600
2.726656,0.45850000000000013,0.6346000000000002,62.13000000000001,-139.98000000000002,743.6400000000001,4.196000000000001,4.272000000000001,2.72493,2.724,0.7487969204393999,9.433545821780738,-2.3203065412722994,5.30112919,1.032578257044138,1.477475304493734,Sonic,2.726656,HP15011600
2.746748,0.45850000000000013,0.6349000000000002,61.90000000000001,-139.91000000000003,741.5400000000002,4.196000000000001,4.280000000000001,2.745022,2.748841,0.7212632207270001,9.508235556795263,-2.386360664829076,4.97962206,0.341926181662989,1.968255630390042,Sonic,2.746748,HP15011600
2.766729,0.45880000000000015,0.6356000000000002,60.16000000000001,-137.58000000000004,726.4400000000002,4.216000000000001,4.283000000000001,2.765003,2.765402,0.6655972626128,9.507398533640835,-2.4363610796343345,4.60577656,-0.341943509401914,2.778640158857598,Sonic,2.766729,HP15011600
2.78682,0.45950000000000013,0.6335000000000002,63.94000000000001,-146.76000000000002,785.1300000000001,4.243000000000001,4.299000000000001,2.785094,2.790244,0.6260923891124,9.445507403486172,-2.399340410128426,3.7160242699999997,-1.6692980265268862,3.9780519207388467,Sonic,2.78682,HP15011600
2.806801,0.47310000000000013,0.6262000000000002,39.61000000000001,-133.05000000000004,748.3500000000001,4.233000000000001,4.307000000000001,2.805075,2.806805,0.595565895953,9.490595028675147,-2.4376848310224015,3.2898404,-2.612001027511302,4.361884405690329,Sonic,2.806801,HP15011600
2.826894,0.47330000000000017,0.6268000000000002,38.81000000000001,-131.63000000000002,737.8100000000002,4.213000000000001,4.312000000000001,2.8251679999999997,2.823366,0.6368664455216,9.425199437532914,-2.379725547304515,2.51971867,-3.52817182605678,5.12227472871954,Sonic,2.826894,HP15011600
2.846874,0.4747000000000002,0.6255000000000002,39.00000000000001,-139.20000000000002,787.1600000000002,4.218000000000001,4.318000000000001,2.845148,2.848207,0.7039050187343999,9.315500125744096,-2.403526913060328,3.30479422,-4.517444741536231,6.5097192783609,Sonic,2.846874,HP15011600
2.866965,0.47430000000000017,0.6265000000000002,38.050000000000004,-134.20000000000002,753.4500000000002,4.230000000000001,4.326000000000001,2.865239,2.864768,0.790097470008,9.253705558788273,-2.475450459729856,4.32165398,-4.991446152393813,6.725130622621236,Sonic,2.866965,HP15011600
2.886946,0.4737000000000002,0.6276000000000002,37.690000000000005,-130.98000000000002,730.0400000000002,4.237000000000001,4.320000000000001,2.88522,2.88961,0.8643187474935999,9.323714113538436,-2.491555099780398,6.3478965899999995,-4.990632897117715,6.549146941122933,Sonic,2.886946,HP15011600
2.907038,0.47310000000000013,0.6280000000000002,38.20000000000001,-129.88000000000002,721.9600000000002,4.235000000000001,4.321000000000001,2.905312,2.906171,0.8828740668649999,9.385757575203588,-2.4184605956198792,6.72174209,-4.975297670966322,6.11782621413178,Sonic,2.907038,HP15011600
2.927018,0.47280000000000016,0.6279000000000002,38.60000000000001,-129.72000000000003,721.3500000000001,4.242000000000001,4.321000000000001,2.925292,2.931012,0.8978380341000001,9.480364648749978,-2.4196000944822647,7.2002643299999995,-4.0709269594474105,5.229996950242302,Sonic,2.927018,HP15011600
2.94711,0.47250000000000014,0.6278000000000002,39.09000000000001,-129.47000000000003,720.3900000000001,4.244000000000001,4.319000000000001,2.945384,2.947573,0.900830827547,9.477762315487071,-2.362749313384745,6.85632647,-3.5105407810437934,4.881564726370521,Sonic,2.94711,HP15011600
2.967091,0.47200000000000014,0.6276000000000002,40.190000000000005,-130.79000000000002,728.5700000000002,4.245000000000001,4.321000000000001,2.965365,2.964134,0.921780381676,9.525779984103128,-2.352762066383104,6.676880629999999,-2.6747136475208517,4.3905022824537845,Sonic,2.967091,HP15011600
2.987183,0.47240000000000015,0.6267000000000001,40.34000000000001,-132.43000000000004,742.3700000000001,4.225000000000001,4.323000000000001,2.985457,2.988976,0.9092106491986,9.47977605791829,-2.3417597678737416,5.86937435,-1.407847905027186,3.7696000065466473,Sonic,2.987183,HP15011600
3.007164,0.47250000000000014,0.6270000000000002,39.03000000000001,-128.60000000000002,719.2800000000001,4.240000000000001,4.324000000000001,3.005438,3.005537,0.86791009963,9.466872940760771,-2.350643811654228,5.802082159999999,-0.4563488188853577,3.7508073906667563,Sonic,3.007164,HP15011600
3.027256,0.47260000000000013,0.6268000000000002,38.370000000000005,-126.71000000000002,709.8100000000002,4.251000000000001,4.326000000000001,3.02553,3.030379,0.8445663107433999,9.476070983820815,-2.376464219240473,5.72731306,0.495753377995491,3.0515751505782482,Sonic,3.027256,HP15011600
3.047236,0.47230000000000016,0.6267000000000001,38.32000000000001,-125.07000000000002,701.2500000000001,4.245000000000001,4.325000000000001,3.0455099999999997,3.04694,0.7990758503490001,9.494673444836609,-2.4012239434191827,5.60020559,0.9758678648599229,2.613189921250419,Sonic,3.047236,HP15011600
3.067328,0.47190000000000015,0.6264000000000002,39.13000000000001,-125.67000000000003,705.9600000000002,4.234000000000001,4.320000000000001,3.0656019999999997,3.063501,0.7458041269924,9.484618443565132,-2.3880719315523375,5.517959579999999,1.2536766123241918,2.3018895412790754,Sonic,3.067328,HP15011600
3.087308,0.47180000000000016,0.6262000000000002,39.540000000000006,-126.11000000000003,709.1900000000002,4.220000000000001,4.320000000000001,3.085582,3.088343,0.6805612298478001,9.473466000858298,-2.3685673428118834,5.24131391,1.302575444466009,2.100397057155012,Sonic,3.087308,HP15011600
3.107401,0.47160000000000013,0.6261000000000002,39.67000000000001,-125.50000000000003,706.3500000000001,4.196000000000001,4.317000000000001,3.1056749999999997,3.104904,0.6685900560597999,9.48558567586002,-2.366248012586513,5.3534675599999995,1.094228602542348,2.091174907010469,Sonic,3.107401,HP15011600
3.127381,0.47110000000000013,0.6264000000000002,41.28000000000001,-128.83,723.4700000000001,4.181000000000001,4.313000000000001,3.125655,3.129745,0.6697871734386,9.498994993921599,-2.334830123740043,5.3086060999999996,0.974844465046746,2.284717660038408,Sonic,3.127381,HP15011600
3.147473,0.47130000000000016,0.6258000000000002,41.17000000000001,-128.87000000000003,726.7000000000002,4.183000000000001,4.306000000000001,3.145747,3.146306,0.6667943799916,9.468374720502132,-2.3234261366242785,5.15159099,0.855106236047364,2.6923662394930767,Sonic,3.147473,HP15011600
3.167454,0.47140000000000015,0.6261000000000002,41.74000000000001,-131.29000000000002,738.6400000000001,4.169000000000001,4.297000000000001,3.165728,3.171148,0.6673929386809999,9.515645704990213,-2.3169517620956124,5.19645245,0.6520203401562901,3.6069436262715446,Sonic,3.167454,HP15011600
3.187546,0.47160000000000013,0.6260000000000002,41.73000000000001,-131.99000000000004,743.5400000000002,4.171000000000001,4.286000000000001,3.18582,3.187709,0.6697871734386,9.4991871955461,-2.299378988245334,5.18149863,0.5218595154472981,4.001519699651229,Sonic,3.187546,HP15011600
3.207525,0.4717000000000002,0.6262000000000002,41.86000000000001,-133.31000000000003,749.5500000000002,4.156000000000001,4.276000000000001,3.205799,3.20427,0.6697871734386,9.4863150746306,-2.276449216358749,5.22636009,0.4338482373490649,4.48650794225928,Sonic,3.207525,HP15011600
3.227619,0.47190000000000015,0.6267000000000001,41.93000000000001,-134.78000000000003,755.4200000000002,4.137000000000001,4.263000000000001,3.2258929999999997,3.229111,0.6895396101888,9.458299784173649,-2.2729421056715746,5.36842138,0.008673685149948152,4.859707686964074,Sonic,3.227619,HP15011600
3.247599,0.47230000000000016,0.6269000000000002,40.80000000000001,-133.36,746.6100000000001,4.145000000000001,4.253000000000001,3.245873,3.245672,0.6512318540672,9.519622720940214,-2.3961242515776093,5.46562121,-0.3942062108296409,5.014137994035597,Sonic,3.247599,HP15011600
3.267691,0.47250000000000014,0.6271000000000002,40.78000000000001,-134.69000000000003,753.0500000000002,4.131000000000001,4.241000000000001,3.265965,3.270514,0.6871453754311999,9.4227693708375,-2.2500916116264276,5.86189744,-0.44692230011671197,5.629215087869289,Sonic,3.267691,HP15011600
3.287671,0.4727000000000002,0.6273000000000002,40.25000000000001,-134.04000000000002,748.7400000000001,4.127000000000001,4.226000000000001,3.285945,3.287075,0.7805205309776001,9.519729882937476,-2.3092528490773243,5.81703598,-0.850720523640939,5.707401105083958,Sonic,3.287671,HP15011600
3.307763,0.47300000000000014,0.6272000000000002,39.93000000000001,-134.29000000000002,750.3800000000001,4.1240000000000006,4.216000000000001,3.306037,3.303636,0.7769291788412,9.389083083064685,-2.2300808219819155,6.12358929,-0.7604134266811111,5.413023587118042,Sonic,3.307763,HP15011600
3.327743,0.4732000000000002,0.6273000000000002,39.440000000000005,-133.85000000000002,747.3800000000001,4.121000000000001,4.207000000000001,3.326017,3.328477,0.7697464745684,9.437508202072946,-2.2642392023305757,6.0637740099999995,-0.9205696194705151,5.630520605702895,Sonic,3.327743,HP15011600
3.347836,0.47350000000000014,0.6276000000000002,38.84000000000001,-133.54000000000002,744.4700000000001,4.1160000000000005,4.202000000000001,3.34611,3.345038,0.760169535538,9.460209014307209,-2.2898700579919264,6.45257333,-0.711127404250326,5.608934132490926,Sonic,3.347836,HP15011600
3.367816,0.4737000000000002,0.6277000000000001,38.14000000000001,-132.50000000000003,738.0000000000001,4.112000000000001,4.191000000000001,3.36609,3.36988,0.766155122432,9.452340484421033,-2.3096151299563004,6.36285041,-0.7563140515154281,5.144614035550206,Sonic,3.367816,HP15011600
3.387908,0.46730000000000016,0.6186000000000001,55.07000000000001,-142.70000000000002,844.8400000000001,4.064000000000001,4.179000000000001,3.386182,3.386441,0.7667536811214,9.494582643423572,-2.321041701828677,6.46005024,-0.8059541654499929,5.162809316604051,Sonic,3.387908,HP15011600
3.407889,0.4596000000000001,0.5788000000000002,74.90000000000002,-111.22000000000003,911.4200000000002,4.010000000000001,4.174000000000001,3.406163,3.411283,0.7685493571895999,9.581708702418982,-2.3487398809198785,6.29555822,-0.5251414161165691,4.613908008421383,Sonic,3.407889,HP15011600
3.427981,0.46230000000000016,0.5655000000000002,65.70000000000002,-90.98000000000002,856.9100000000002,4.038000000000001,4.176000000000001,3.426255,3.427844,0.7565781834016,9.543256657141157,-2.354029124686346,5.7572206999999995,-0.38445292342942805,4.484632412471842,Sonic,3.427981,HP15011600
3.447961,0.46330000000000016,0.5610000000000002,60.05000000000001,-80.98000000000002,803.4300000000002,4.070000000000001,4.167000000000001,3.4462349999999997,3.444405,0.7248545728633999,9.500530881991175,-2.3535145122968815,5.27122155,-0.16631969532036595,4.575857836976307,Sonic,3.447961,HP15011600
3.468053,0.4641000000000001,0.5595000000000002,56.10000000000001,-76.15000000000002,769.0600000000002,4.052000000000001,4.167000000000001,3.4663269999999997,3.469247,0.6673929386809999,9.494127373818538,-2.3490937503134477,4.98709897,0.16801662266325312,4.8181943498775235,Sonic,3.468053,HP15011600
3.488034,0.46440000000000015,0.5594000000000002,55.31000000000001,-75.53000000000002,764.1900000000002,4.054000000000001,4.170000000000001,3.4863079999999997,3.485808,0.634472210764,9.46845399834357,-2.3460844290449248,4.99457588,0.264010730642799,4.874229657839368,Sonic,3.488034,HP15011600
3.508126,0.46470000000000017,0.5584000000000002,55.01000000000001,-74.87000000000002,766.4000000000002,4.054000000000001,4.161000000000001,3.5063999999999997,3.510649,0.6189096848396001,9.457007491414187,-2.350994568961604,5.4730981199999995,-0.11724959333963403,5.849611036054758,Sonic,3.508126,HP15011600
3.528107,0.46500000000000014,0.5574000000000002,55.29000000000001,-74.86000000000001,776.3900000000001,4.057000000000001,4.155000000000001,3.5263809999999998,3.528791,,,,,,,Sonic,3.528107,HP15011600
3.548198,0.46480000000000016,0.5576000000000002,55.89000000000001,-75.54000000000002,781.0200000000001,4.053000000000001,4.150000000000001,3.546472,3.552052,0.7577753007804,9.412021728823264,-2.323686554905205,5.95909727,-1.169406398667549,5.790427779257058,Sonic,3.548198,HP15011600
3.568179,0.46500000000000014,0.5571000000000002,54.45000000000001,-73.59000000000002,766.2600000000001,4.057000000000001,4.151000000000001,3.566453,3.568613,0.7464026856818,9.399384329345882,-2.291015781026699,6.00395873,-1.410962755077855,5.337271559818695,Sonic,3.568179,HP15011600
3.588271,0.46450000000000014,0.5573000000000001,56.89000000000001,-75.83000000000001,786.7800000000002,4.052000000000001,4.153000000000001,3.586545,3.585174,0.8002729677278001,9.442226140365124,-2.311136844754668,6.24321985,-1.394322011092857,5.3795981521813445,Sonic,3.588271,HP15011600
3.608251,0.4651000000000001,0.5627000000000002,53.81000000000001,-77.96000000000002,759.1000000000001,4.043000000000001,4.155000000000001,3.606525,3.610015,0.8619245127359999,9.395611038591984,-2.2339161052198535,6.19835839,-1.300092584719236,4.923863995860957,Sonic,3.608251,HP15011600
3.628344,0.46880000000000016,0.6063000000000002,48.75000000000001,-120.74000000000002,782.8900000000001,4.057000000000001,4.138000000000001,3.6266179999999997,3.626576,0.8840711842437999,9.452575205859153,-2.2998741279643795,6.46005024,-1.160958629100942,4.787274878339499,Sonic,3.628344,HP15011600
3.648323,0.46940000000000015,0.6093000000000002,49.42000000000001,-127.79000000000002,809.5200000000002,4.069000000000001,4.118000000000001,3.646597,3.651418,0.864917306183,9.457779409998382,-2.286905906236629,6.64697299,-0.7618571155684439,4.075639440485403,Sonic,3.648323,HP15011600
3.668415,0.46880000000000016,0.6088000000000002,49.97000000000001,-126.12000000000002,802.0700000000002,4.060000000000001,4.127000000000001,3.666689,3.667979,0.8433691933645999,9.498615890071813,-2.3078245853916006,6.83389574,-0.33841414619006394,3.802179087422058,Sonic,3.668415,HP15011600
3.688396,0.46870000000000017,0.6091000000000002,51.18000000000001,-128.94000000000003,817.9900000000001,4.062000000000001,4.118000000000001,3.68667,3.68454,0.814039817584,9.520117398272673,-2.316066457341766,6.78155737,-0.300397073530176,3.5494919522945816,Sonic,3.688396,HP15011600
3.708488,0.4686000000000001,0.6098000000000002,51.68000000000001,-130.50000000000003,823.6300000000001,4.058000000000001,4.115000000000001,3.706762,3.709381,0.7745349440836,9.532528487797338,-2.338286303128192,6.52734243,-0.181084909517925,3.715230083835165,Sonic,3.708488,HP15011600
3.728468,0.4686000000000001,0.6103000000000002,51.53000000000001,-130.93000000000004,823.2200000000001,4.070000000000001,4.109000000000001,3.7267419999999998,3.725942,0.7398185400984001,9.536869971939337,-2.3092245025349114,6.15349693,-0.31354155308851195,3.919195432572714,Sonic,3.728468,HP15011600
3.74856,0.46870000000000017,0.6107000000000002,51.39000000000001,-131.22000000000003,822.5300000000002,4.074000000000001,4.105000000000001,3.7468339999999998,3.750784,0.7134819577648001,9.528738374072628,-2.3215704874893475,5.87685126,-0.25132119563646904,3.240946554957153,Sonic,3.74856,HP15011600
3.768541,0.46870000000000017,0.6106000000000001,51.72000000000001,-131.79000000000002,826.9800000000001,4.069000000000001,4.106000000000001,3.766815,3.767345,0.7051021361131999,9.495996733838089,-2.2913576644620814,5.79460525,-0.15705867047765998,3.396721254560445,Sonic,3.768541,HP15011600
3.788633,0.46870000000000017,0.6111000000000002,51.95000000000001,-132.94000000000003,831.1200000000001,4.070000000000001,4.107000000000001,3.786907,3.792187,0.6638015865446,9.530525806551132,-2.2901300138862646,5.660020869999999,-0.2737267000375111,4.7897866176511465,Sonic,3.788633,HP15011600
3.808613,0.46890000000000015,0.6125000000000002,51.89000000000001,-135.24000000000004,836.4600000000002,4.077000000000001,4.107000000000001,3.8068869999999997,3.808748,0.71827042728,9.505234184625559,-2.2651723262972543,5.36842138,-0.43204623773763906,5.159772215949708,Sonic,3.808613,HP15011600
3.828705,0.46880000000000016,0.6128000000000002,52.39000000000001,-136.36,841.9000000000002,4.083000000000001,4.109000000000001,3.8269789999999997,3.825309,0.7009122252874,9.479574982421795,-2.2707330495296607,5.6375901399999995,-0.530585183814021,5.379459981127617,Sonic,3.828705,HP15011600
3.848686,0.4686000000000001,0.6132000000000002,52.81000000000001,-136.83,842.0300000000002,4.086000000000001,4.134000000000001,3.8469599999999997,3.85015,0.6709842908174,9.434125538740433,-2.2916690140420326,5.91423581,-0.867289294142586,5.305793628152786,Sonic,3.848686,HP15011600
3.868778,0.46880000000000016,0.6137000000000002,52.81000000000001,-138.32000000000002,848.5400000000002,4.090000000000001,4.150000000000001,3.8670519999999997,3.866712,0.6877439341206,9.412587272511754,-2.2864789831740087,6.26565058,-1.187988870010362,5.343384635825544,Sonic,3.868778,HP15011600
3.888758,0.46870000000000017,0.6137000000000002,52.64000000000001,-137.64000000000001,843.9200000000002,4.090000000000001,4.133000000000001,3.887032,3.891553,0.7404170987878,9.440777941622393,-2.294918818534475,6.78155737,-1.5939778401276454,5.4831878997532355,Sonic,3.888758,HP15011600
3.908851,0.46870000000000017,0.6137000000000002,52.71000000000001,-137.86,845.4900000000001,4.096000000000001,4.139000000000001,3.9071249999999997,3.908114,0.7727392680154,9.449150022713022,-2.301593806173048,6.96848012,-1.5678328279776748,5.462342708334015,Sonic,3.908851,HP15011600
3.928831,0.4686000000000001,0.6136000000000001,53.18000000000001,-138.51000000000002,849.7500000000001,4.1000000000000005,4.147000000000001,3.927105,3.932956,0.8056599959324,9.476110391548241,-2.324458473489401,6.72174209,-1.1101569442994728,5.961288685776501,Sonic,3.928831,HP15011600
3.948923,0.46850000000000014,0.6133000000000002,53.65000000000001,-139.07000000000002,855.2400000000001,4.102000000000001,4.173000000000001,3.947197,3.949517,0.8116455828264,9.493688927184317,-2.336761938630218,6.88623411,-0.834998107200579,5.673483407589753,Sonic,3.948923,HP15011600
3.968903,0.46830000000000016,0.6131000000000002,54.71000000000001,-140.29000000000002,863.8300000000002,4.109000000000001,4.184000000000001,3.967177,3.966078,0.8104484654476,9.492625594077177,-2.3763114253433972,6.78155737,-0.651983022150789,5.527567067655212,Sonic,3.968903,HP15011600
3.988996,0.46830000000000016,0.6130000000000002,54.52000000000001,-139.88000000000002,862.0100000000002,4.117000000000001,4.197000000000001,3.98727,3.990919,0.8355879304024,9.520230784442322,-2.3846268133492003,6.392758049999999,-0.3434707235985478,4.9651340896252405,Sonic,3.988996,HP15011600
4.008976,0.46820000000000017,0.6134000000000002,54.01000000000001,-138.54000000000002,851.2200000000001,4.121000000000001,4.196000000000001,4.00725,4.00748,0.8493547802586,9.478800414137993,-2.3837756169235664,6.0413432799999995,-0.07216224243009595,4.479404565224442,Sonic,4.008976,HP15011600
4.029068,0.46830000000000016,0.6134000000000002,53.72000000000001,-138.01000000000002,847.9000000000002,4.118000000000001,4.205000000000001,4.027342,4.032322,0.8188282870992001,9.48595901792401,-2.364491576350025,5.70488233,0.335702257474626,3.521300140518258,Sonic,4.029068,HP15011600
4.049049,0.46830000000000016,0.6133000000000002,53.50000000000001,-137.47000000000003,845.2600000000002,4.119000000000001,4.210000000000001,4.0473230000000004,4.048883,0.8122441415158,9.456458770696509,-2.3478182805247996,5.4730981199999995,0.5189994605448449,3.52055885872551,Sonic,4.049049,HP15011600
4.06914,0.46840000000000015,0.6133000000000002,53.23000000000001,-137.14000000000001,843.1900000000002,4.122000000000001,4.210000000000001,4.067414,4.065444,0.8050614372429999,9.454549540562947,-2.330890328204448,5.31608301,0.5726338773765539,2.981726054748672,Sonic,4.06914,HP15011600
4.089121,0.46850000000000014,0.6133000000000002,53.03000000000001,-137.10000000000002,843.3100000000002,4.120000000000001,4.211000000000001,4.087395,4.090285,0.8014700851065999,9.472563410747052,-2.277809725774635,5.26374464,0.741481083054831,2.877040933880253,Sonic,4.089121,HP15011600
4.109213,0.4686000000000001,0.6136000000000001,52.89000000000001,-137.45000000000002,843.4300000000002,4.123000000000001,4.205000000000001,4.107487,4.106846,0.7685493571895999,9.450974213219348,-2.2671014914878236,5.233837,0.7030768201059749,2.73232503951078,Sonic,4.109213,HP15011600
4.129193,0.46870000000000017,0.6137000000000002,52.610000000000014,-137.44000000000003,842.6000000000001,4.121000000000001,4.209000000000001,4.127467,4.131688,0.7619652116061999,9.394095085579416,-2.2525637357488733,5.28617537,0.4097946754365871,2.611209319194441,Sonic,4.129193,HP15011600
4.149285,0.46880000000000016,0.6138000000000002,52.31000000000001,-137.40000000000003,841.7400000000001,4.120000000000001,4.207000000000001,4.147559,4.148249,0.7344315118938,9.38712027193249,-2.256588570911706,5.6375901399999995,0.13799393171062801,2.447307842743134,Sonic,4.149285,HP15011600
4.169266,0.46910000000000013,0.6144000000000002,51.93000000000001,-138.33000000000004,844.2400000000001,4.117000000000001,4.195000000000001,4.167540000000001,4.17309,0.7218617794164,9.442497619831062,-2.298344001680605,6.49743479,-0.371866903998975,2.242280219494245,Sonic,4.169266,HP15011600
4.189359,0.46930000000000016,0.6151000000000002,51.50000000000001,-138.64000000000001,842.0200000000002,4.110000000000001,4.176000000000001,4.187633,4.189652,0.7679507985002,9.45480108497188,-2.2807654660445267,7.53672528,0.554405497537521,2.3205770848904277,Sonic,4.189359,HP15011600
4.209339,0.46950000000000014,0.6152000000000002,51.12000000000001,-138.67000000000002,841.3300000000002,4.105000000000001,4.172000000000001,4.207613,4.206213,0.7104891643178,9.640618857847535,-2.428574014902614,6.90866484,-0.758847337786314,2.2557399158581983,Sonic,4.209339,HP15011600
4.229431,0.46960000000000013,0.6151000000000002,50.81000000000001,-138.38000000000002,839.8900000000002,4.102000000000001,4.167000000000001,4.227705,4.231054,0.6859482580524,9.62800715521296,-2.461997234694897,7.33484871,-0.21549486956963704,3.0498766665426986,Sonic,4.229431,HP15011600
4.249411,0.46980000000000016,0.6152000000000002,49.88000000000001,-137.14000000000001,831.9300000000002,4.099000000000001,4.160000000000001,4.247685000000001,4.247615,0.6446477084837999,9.526775562940433,-2.348078236419138,6.4899578799999995,-0.3193336363767689,3.3165546352897977,Sonic,4.249411,HP15011600
4.269503,0.46990000000000015,0.6152000000000002,49.55000000000001,-136.54000000000002,828.2600000000001,4.093000000000001,4.153000000000001,4.267777000000001,4.272457,0.6075370697410001,9.617097845429655,-2.4125597138785215,6.38528114,-0.060749345692497125,4.209440476587758,Sonic,4.269503,HP15011600
4.289484,0.47000000000000014,0.6152000000000002,49.32000000000001,-136.44000000000003,828.1900000000002,4.093000000000001,4.144000000000001,4.287758,4.289018,0.5889817503696,9.526008943755448,-2.3142590898062534,5.6824516,-0.26542287743760595,4.505195485870632,Sonic,4.289484,HP15011600
4.309576,0.47010000000000013,0.6155000000000002,49.76000000000001,-138.07000000000002,836.2700000000002,4.088000000000001,4.142000000000001,4.30785,4.305579,0.595565895953,9.548175208543242,-2.3452837015317285,5.68992851,-0.40480585229114086,5.108118401173977,Sonic,4.309576,HP15011600
4.329556,0.47060000000000013,0.6155000000000002,47.66000000000001,-134.59000000000003,815.0800000000002,4.085000000000001,4.133000000000001,4.3278300000000005,4.330421,0.6057413936728,9.474984603570475,-2.300965807613933,5.03943734,-0.82393930196676,5.6176251453798,Sonic,4.329556,HP15011600
4.349648,0.47060000000000013,0.6155000000000002,47.62000000000001,-134.90000000000003,817.2100000000002,4.078000000000001,4.129000000000001,4.3479220000000005,4.346982,0.6063399523622001,9.536663597043628,-2.3361055935286905,5.0469142499999995,-1.1639295321849086,5.636384662474502,Sonic,4.349648,HP15011600
4.369629,0.4707000000000002,0.6155000000000002,47.56000000000001,-135.04000000000002,817.9600000000002,4.074000000000001,4.1240000000000006,4.367903,4.371823,0.6422534737262,9.411119138712017,-2.2329289378679564,4.83756077,-1.600904171410593,5.882145466319032,Sonic,4.369629,HP15011600
4.389721,0.47060000000000013,0.6155000000000002,47.89000000000001,-135.45000000000002,820.0500000000002,4.074000000000001,4.128000000000001,4.387995,4.388384,0.6596116757188001,9.428016094790351,-2.2628335234014654,5.1665448099999995,-1.6268721378086728,5.795937744524886,Sonic,4.389721,HP15011600
4.409701,0.47080000000000016,0.6156000000000001,49.02000000000001,-139.70000000000002,845.5100000000002,4.067000000000001,4.1160000000000005,4.407975,4.413226,0.6536260888248,9.475677244313232,-2.214218852468311,5.57029795,-1.6856293296192422,6.274707838857549,Sonic,4.409701,HP15011600
4.429793,0.47060000000000013,0.6160000000000002,48.52000000000001,-138.02000000000004,832.5600000000002,4.068000000000001,4.119000000000001,4.428067,4.429787,0.6889410514994,9.458514570554762,-2.225869084593795,5.83946671,-1.5473086292770473,6.3141024028343935,Sonic,4.429793,HP15011600
4.449774,0.47080000000000016,0.6156000000000001,48.88000000000001,-139.38000000000002,843.7000000000002,4.070000000000001,4.112000000000001,4.448048,4.446348,0.682356905916,9.424915972108789,-2.208324657285928,6.0413432799999995,-1.6411508653617,7.16723958865173,Sonic,4.449774,HP15011600
4.469867,0.47050000000000014,0.6163000000000002,48.74000000000001,-138.11,831.2800000000002,4.071000000000001,4.122000000000001,4.468141,4.471189,0.7206646620376,9.399966696005185,-2.2134243491275023,6.8787572,-1.8572703926295957,7.121449830647607,Sonic,4.469867,HP15011600
4.489846,0.47040000000000015,0.6166000000000001,48.96000000000001,-138.55000000000004,832.6500000000002,4.068000000000001,4.126000000000001,4.48812,4.48775,0.7176718685906001,9.396004315712979,-2.269491688069225,7.42457163,-2.0061187609499402,6.81675478924062,Sonic,4.489846,HP15011600
4.509938,0.4702000000000002,0.6165000000000002,49.19000000000001,-138.34000000000003,831.7200000000001,4.066000000000001,4.127000000000001,4.508212,4.512592,0.7458041269924,9.40836447393862,-2.2861933304368636,7.9330015099999995,-2.2978463685504806,6.702952590496197,Sonic,4.509938,HP15011600
4.529919,0.46980000000000016,0.6165000000000002,50.45000000000001,-139.89000000000001,841.1000000000001,4.064000000000001,4.125000000000001,4.528193,4.529153,0.7894989113186,9.453013652493375,-2.312205939647609,8.14235499,-2.489021329233474,6.414898293074208,Sonic,4.529919,HP15011600
4.550012,0.46960000000000013,0.6164000000000002,51.35000000000001,-141.03000000000003,848.2700000000002,4.064000000000001,4.123000000000001,4.548286,4.553994,0.826010991372,9.478692789754144,-2.3439772355010615,7.99281679,-2.119810111512849,5.778411771780437,Sonic,4.550012,HP15011600
4.569991,0.46910000000000013,0.6165000000000002,51.24000000000001,-138.50000000000003,832.5400000000002,4.067000000000001,4.128000000000001,4.568265,4.570555,0.843967752054,9.478984204277088,-2.368516411512858,7.91057078,-1.7862150753219779,5.8374510816114356,Sonic,4.569991,HP15011600
4.590083,0.46880000000000016,0.6162000000000002,51.65000000000001,-137.94000000000003,831.0700000000002,4.068000000000001,4.130000000000001,4.588357,4.587117,0.8511504563268,9.483331450204883,-2.368216585504507,7.6713096599999995,-1.448520663965424,5.628080839874598,Sonic,4.590083,HP15011600
4.610063,0.46870000000000017,0.6156000000000001,51.58000000000001,-136.87000000000003,827.8800000000001,4.075000000000001,4.128000000000001,4.608337000000001,4.611958,0.8325951369554,9.513606728102774,-2.398517097858617,7.61897129,-0.8201220448215059,5.204040535670172,Sonic,4.610063,HP15011600
4.630155,0.4686000000000001,0.6148000000000002,51.10000000000001,-134.04000000000002,815.4800000000001,4.076000000000001,4.112000000000001,4.628429000000001,4.628519,0.8098499067582,9.517843699947115,-2.407372795096691,7.37971017,-0.544963207722612,4.916235257483424,Sonic,4.630155,HP15011600
4.650136,0.46820000000000017,0.6140000000000002,53.01000000000001,-136.50000000000003,835.2600000000002,4.071000000000001,4.117000000000001,4.64841,4.653361,0.8200254044780001,9.516995153221087,-2.3998492607320903,7.6488789299999995,-0.04608920376347714,4.817840258373744,Sonic,4.650136,HP15011600
4.670228,0.46800000000000014,0.6135000000000002,53.62000000000001,-136.72000000000003,839.4700000000001,4.062000000000001,4.113000000000001,4.668502,4.669922,0.817032611031,9.493940933979838,-2.4133068603930865,6.729219,-0.791465293359888,4.295963415187521,Sonic,4.670228,HP15011600
4.690209,0.46770000000000017,0.6129000000000002,54.610000000000014,-137.38000000000002,846.9300000000002,4.060000000000001,4.113000000000001,4.688483000000001,4.686483,0.7883017939397999,9.455652743784102,-2.366004879662987,6.68435754,-0.9890354480701589,4.085707944691233,Sonic,4.690209,HP15011600
4.710301,0.4676000000000001,0.6133000000000002,54.87000000000001,-137.75000000000003,847.1900000000002,4.070000000000001,4.112000000000001,4.708575000000001,4.711325,0.7912945873868,9.463674067567354,-2.362814417954976,7.11054141,-0.642578050341381,3.629868716102307,Sonic,4.710301,HP15011600
4.730281,0.46650000000000014,0.6169000000000002,54.10000000000001,-134.74000000000004,806.9900000000001,4.080000000000001,4.142000000000001,4.728555,4.727886,0.8523475737056,9.422339798075274,-2.3442376537819873,6.392758049999999,-1.2838390310232057,4.568787558726657,Sonic,4.730281,HP15011600
4.750373,0.46570000000000017,0.6265000000000002,52.73000000000001,-137.40000000000003,770.0500000000002,4.070000000000001,4.125000000000001,4.748647,4.752727,0.8565374845314,9.445515814971579,-2.379148480044426,6.82641883,-1.2453627945909989,4.354222568527608,Sonic,4.750373,HP15011600
4.770353,0.46580000000000016,0.6262000000000002,52.05000000000001,-135.51000000000002,760.9900000000001,4.084000000000001,4.135000000000001,4.768627,4.769288,0.8619245127359999,9.243734672370856,-2.260379147023007,7.18531051,-0.838665641466156,3.786207651746457,Sonic,4.770353,HP15011600
4.790445,0.4656000000000001,0.6265000000000002,52.24000000000001,-135.63000000000002,760.3500000000001,4.081000000000001,4.130000000000001,4.788719,4.79413,0.8846697429332,9.348014993639332,-2.2966190240727244,7.1778336,-1.227797947148388,2.8904948543312305,Sonic,4.790445,HP15011600
4.810426,0.46550000000000014,0.6267000000000001,52.00000000000001,-134.83,754.9400000000002,4.078000000000001,4.132000000000001,4.8087,4.810691,0.8014700851065999,9.468047010337957,-2.4286085856174138,8.00777061,-0.5256667774592639,3.352768151645598,Sonic,4.810426,HP15011600
4.830518,0.4656000000000001,0.6262000000000002,52.20000000000001,-135.10000000000002,758.7300000000001,4.080000000000001,4.135000000000001,4.828792,4.827252,0.8475591041903999,9.324536501035071,-2.3063148565514204,7.98533988,-0.38801538542646596,2.849584627983702,Sonic,4.830518,HP15011600
4.850498,0.46580000000000016,0.6262000000000002,51.80000000000001,-135.12000000000003,759.2100000000002,4.087000000000001,4.137000000000001,4.848772,4.849093,,,,,,,Sonic,4.850498,HP15011600
4.87059,0.46570000000000017,0.6265000000000002,52.07000000000001,-135.46000000000004,759.4800000000001,4.085000000000001,4.139000000000001,4.868864,4.868654,0.6937295210146001,9.532599816539959,-2.507806309555629,8.45638521,-0.14434025590645505,3.600404485277565,Sonic,4.87059,HP15011600
4.890571,0.46570000000000017,0.6281000000000002,51.32000000000001,-135.21000000000004,749.8900000000001,4.094000000000001,4.137000000000001,4.888845,4.893496,0.6476405019307999,9.517216163774586,-2.50820799816203,8.46386212,-0.31693274524663495,3.75939333128709,Sonic,4.890571,HP15011600
4.910663,0.4656000000000001,0.6293000000000002,50.99000000000001,-134.76000000000002,741.8000000000002,4.098000000000001,4.141000000000001,4.908937,4.910057,0.6835540232948,9.426472257621958,-2.3910108488514163,8.26198555,-0.521534303508393,3.695867456001441,Sonic,4.910663,HP15011600
4.930643,0.46570000000000017,0.6296000000000002,50.62000000000001,-134.53000000000003,738.7900000000002,4.103000000000001,4.140000000000001,4.928917,4.926618,0.6596116757188001,9.553552604023144,-2.5128718930689904,8.037678249999999,-1.2823175927395467,3.964592224374894,Sonic,4.930643,HP15011600
4.950735,0.46580000000000016,0.6284000000000002,50.79000000000001,-134.40000000000003,744.1400000000001,4.110000000000001,4.141000000000001,4.949009,4.950869,,,,,,,Sonic,4.950735,HP15011600
4.970716,0.46590000000000015,0.6275000000000002,51.10000000000001,-134.58,749.7100000000002,4.110000000000001,4.142000000000001,4.968990000000001,4.96802,0.6781669950902001,9.466997850502022,-2.4767281168315223,6.961003209999999,-1.3321347524260023,4.089840418642104,Sonic,4.970716,HP15011600
4.990808,0.46600000000000014,0.6265000000000002,51.21000000000001,-134.45000000000002,753.7000000000002,4.118000000000001,4.146000000000001,4.989082000000001,4.992862,0.6596116757188001,9.449770072173319,-2.4742901010372895,7.23764888,-1.160427491845272,4.4661161386994035,Sonic,4.990808,HP15011600
5.010789,0.46600000000000014,0.6258000000000002,51.50000000000001,-134.79000000000002,759.4700000000001,4.125000000000001,4.151000000000001,5.009063,5.009423,0.6500347366884,9.429532972576093,-2.497525460718025,7.37971017,-0.942753427508529,4.519219418275442,Sonic,5.010789,HP15011600
5.03088,0.46590000000000015,0.6250000000000002,51.95000000000001,-134.68000000000004,762.9200000000002,4.125000000000001,4.155000000000001,5.029154,5.034265,0.6171140087714,9.413492974709195,-2.4549524794651165,7.432048539999999,-1.29719365511862,4.434035096294475,Sonic,5.03088,HP15011600
5.050861,0.46570000000000017,0.6244000000000002,52.52000000000001,-134.70000000000002,765.9800000000001,4.128000000000001,4.157000000000001,5.049135000000001,5.050826,0.6278880651805999,9.449147835400003,-2.477217494764768,7.49186382,-1.43869540308186,4.73929437374232,Sonic,5.050861,HP15011600
5.070953,0.4661000000000001,0.6233000000000002,50.26000000000001,-129.67000000000002,742.6100000000001,4.143000000000001,4.163000000000001,5.069227000000001,5.067387,0.6183111261502,9.44250960578925,-2.482537734773255,7.6713096599999995,-1.622379796441047,4.342632626038119,Sonic,5.070953,HP15011600
5.090933,0.46600000000000014,0.6226000000000002,50.41000000000001,-128.92000000000002,742.0300000000002,4.144000000000001,4.174000000000001,5.089207,5.092229,0.6500347366884,9.456275442944003,-2.4897472698582983,7.52177146,-2.071967777969397,4.636938170520684,Sonic,5.090933,HP15011600
5.111025,0.46580000000000016,0.6221000000000002,50.85000000000001,-128.65000000000003,743.1600000000002,4.126000000000001,4.177000000000001,5.109299,5.10879,0.6967223144616,9.46771353838798,-2.505029060025619,7.5292483699999995,-2.245019431081896,4.757804871601783,Sonic,5.111025,HP15011600
5.131006,0.4651000000000001,0.6215000000000002,53.54000000000001,-132.06000000000003,765.9100000000002,4.132000000000001,4.181000000000001,5.1292800000000005,5.133631,0.7021093426662,9.435563138684739,-2.5037026589379465,7.37223326,-2.1255302213177547,4.816490089928999,Sonic,5.131006,HP15011600
5.151098,0.46490000000000015,0.6211000000000002,53.37000000000001,-130.55,758.9600000000002,4.128000000000001,4.188000000000001,5.1493720000000005,5.150192,0.7260516902422,9.438578221739062,-2.506791258047907,7.23017197,-2.032645187475903,4.857898354747011,Sonic,5.151098,HP15011600
5.171079,0.46470000000000017,0.6209000000000002,52.99000000000001,-128.83,749.9300000000002,4.131000000000001,4.191000000000001,5.169353,5.175034,0.7523882725758,9.436923648100624,-2.5174543228214934,7.18531051,-1.5753564940866687,4.959441302692548,Sonic,5.171079,HP15011600
5.191171,0.4646000000000001,0.6205000000000002,52.65000000000001,-127.01000000000002,741.5300000000002,4.126000000000001,4.194000000000001,5.189445,5.191595,0.7505925965076,9.44675233941939,-2.520155406596259,7.23764888,-1.3238698045242598,4.776039027353789,Sonic,5.191171,HP15011600
5.211151,0.46440000000000015,0.6204000000000002,52.33000000000001,-125.62000000000002,733.7100000000002,4.125000000000001,4.188000000000001,5.209425,5.208156,0.7535853899546,9.457429577464183,-2.530380024735625,7.03577231,-1.0289280505174858,5.156696240597203,Sonic,5.211151,HP15011600
5.231243,0.46390000000000015,0.6204000000000002,53.67000000000001,-126.76000000000002,740.2900000000002,4.114000000000001,4.178000000000001,5.229517,5.232997,0.7224603381057999,9.399826350452885,-2.507733255886579,6.729219,-0.731900622186195,5.223508235772435,Sonic,5.231243,HP15011600
5.251224,0.4636000000000001,0.6202000000000002,54.25000000000001,-126.87000000000002,742.2100000000002,4.117000000000001,4.168000000000001,5.249498,5.249559,0.706299253492,9.41650540806391,-2.5069949832440077,6.83389574,-0.729637902109788,4.802610104490891,Sonic,5.251224,HP15011600
5.271316,0.46340000000000015,0.6202000000000002,54.42000000000001,-126.53000000000003,739.9200000000002,4.115000000000001,4.155000000000001,5.26959,5.2744,0.706299253492,9.468830914880341,-2.5487136559850883,7.42457163,-0.3655163605828349,4.717569729476624,Sonic,5.271316,HP15011600
5.291296,0.46320000000000017,0.6203000000000002,54.23000000000001,-125.74000000000002,734.9800000000001,4.105000000000001,4.145000000000001,5.28957,5.290961,0.727248807621,9.44140951465429,-2.525139062568576,7.0282954,-0.9217700650355822,5.409101257704249,Sonic,5.291296,HP15011600
5.311388,0.4631000000000001,0.6202000000000002,54.10000000000001,-124.98000000000002,731.0100000000001,4.1000000000000005,4.137000000000001,5.309662,5.307522,0.7422127748559999,9.44026114191991,-2.513268282276179,6.9535263,-1.0193575847821377,6.316542168662691,Sonic,5.311388,HP15011600
5.331368,0.46290000000000014,0.6211000000000002,54.59000000000001,-126.23000000000002,733.4700000000001,4.064000000000001,4.125000000000001,5.329642000000001,5.332364,0.7505925965076,9.420982863132169,-2.5348716530750908,6.75912664,-1.186860397928646,5.924084868392712,Sonic,5.331368,HP15011600
5.351461,0.4626000000000001,0.6204000000000002,54.42000000000001,-123.93000000000002,723.9000000000001,4.067000000000001,4.102000000000001,5.349735,5.348925,0.7398185400984001,9.42192486097084,-2.5736235243612673,6.76660355,-1.254977910937485,5.7474649773702,Sonic,5.351461,HP15011600
5.371441,0.46240000000000014,0.6204000000000002,54.44000000000001,-123.48000000000002,721.0900000000001,4.061000000000001,4.110000000000001,5.369715,5.373767,0.7877032352504,9.42922208538273,-2.5623240495431596,6.70678827,-1.5143423581126678,5.642071673494221,Sonic,5.371441,HP15011600
5.391533,0.46250000000000013,0.6204000000000002,54.42000000000001,-123.78000000000003,722.9700000000001,4.056000000000001,4.095000000000001,5.389807,5.390328,0.7966816155914,9.444583153391488,-2.5735442465198295,6.4301426,-1.273914473784078,5.514527660365416,Sonic,5.391533,HP15011600
5.411513,0.46240000000000014,0.6203000000000002,54.41000000000001,-123.38000000000002,721.1300000000001,4.054000000000001,4.093000000000001,5.409787000000001,5.415169,0.8307994608872,9.423469160525823,-2.5721159828341054,6.04882019,-1.0137367713327958,5.443937282743092,Sonic,5.411513,HP15011600
5.431605,0.46250000000000013,0.6200000000000002,54.28000000000001,-122.99000000000002,720.2800000000001,4.049000000000001,4.096000000000001,5.429879000000001,5.43173,0.8266095500614,9.42781640645362,-2.5718161568257547,6.01891255,-0.5339763759721439,5.219657879841993,Sonic,5.431605,HP15011600
5.451586,0.46250000000000013,0.6200000000000002,54.26000000000001,-122.96000000000002,719.9300000000002,4.040000000000001,4.094000000000001,5.44986,5.448291,0.8331936956448001,9.439475050064509,-2.5687869005002253,5.81703598,-0.3461206339639228,4.988629191409837,Sonic,5.451586,HP15011600
5.471678,0.46250000000000013,0.6198000000000002,54.17000000000001,-122.66000000000003,719.2400000000001,4.035000000000001,4.097000000000001,5.469952,5.473133,0.8080542306899999,9.460984969750776,-2.556836842366391,5.57777486,-0.15352930726580993,4.420260183124904,Sonic,5.471678,HP15011600
5.491658,0.46240000000000014,0.6196000000000002,54.19000000000001,-122.11000000000003,717.1100000000001,4.032000000000001,4.094000000000001,5.4899320000000005,5.489694,0.8014700851065999,9.46758644133371,-2.5545684434400453,5.54039031,-0.04018627229370608,4.090410430595937,Sonic,5.491658,HP15011600
5.51175,0.46270000000000017,0.6190000000000002,53.60000000000001,-121.37000000000002,715.9400000000002,4.029000000000001,4.094000000000001,5.5100240000000005,5.514535,0.757176742091,9.467492990221066,-2.5233401065184697,5.24131391,0.03513969001851003,4.013247813194445,Sonic,5.51175,HP15011600
5.531731,0.46280000000000016,0.6191000000000002,53.83000000000001,-122.22000000000003,720.4900000000001,4.019000000000001,4.096000000000001,5.530005,5.531096,0.7673522398107999,9.480432865406405,-2.511404221655841,5.1665448099999995,0.018747965268752997,3.5045874230499092,Sonic,5.531731,HP15011600
5.551823,0.46280000000000016,0.6193000000000002,53.80000000000001,-122.40000000000002,720.4100000000002,4.017000000000001,4.099000000000001,5.550097,5.555938,0.7535853899546,9.495621204461083,-2.468737789290289,4.80765313,0.054397245583695075,3.42057044784882,Sonic,5.551823,HP15011600
5.571803,0.46300000000000013,0.6194000000000002,53.76000000000001,-122.98000000000002,723.3500000000001,4.016000000000001,4.094000000000001,5.570077,5.572499,0.7206646620376,9.501614612541909,-2.477966828592352,4.09734668,-0.15511694311984492,3.80143780562931,Sonic,5.571803,HP15011600
5.591895,0.4631000000000001,0.6196000000000002,53.66000000000001,-123.29000000000002,723.9200000000002,4.015000000000001,4.096000000000001,5.590169,5.58906,0.7470012443712,9.406498226005265,-2.42164529554209,4.00014685,-0.14098793844649504,4.730996327055389,Sonic,5.591895,HP15011600
5.611876,0.46320000000000017,0.6198000000000002,53.69000000000001,-124.00000000000003,727.1400000000001,4.016000000000001,4.094000000000001,5.61015,5.613901,0.7158761925224,9.385851026316232,-2.449688932541455,4.60577656,-0.16285652967889197,4.376379053693409,Sonic,5.611876,HP15011600
5.631968,0.46350000000000013,0.6202000000000002,53.15000000000001,-123.88000000000002,724.7200000000001,4.017000000000001,4.090000000000001,5.630242,5.630462,0.712284840386,9.339612378693271,-2.448427636024013,5.09925262,-0.3426185936242859,3.8183606676347366,Sonic,5.631968,HP15011600
5.651948,0.4636000000000001,0.6205000000000002,53.24000000000001,-124.86000000000003,728.9300000000002,4.015000000000001,4.090000000000001,5.650222,5.655304,0.6979194318404001,9.287247464149418,-2.458714709034005,5.89180508,-0.882828888918081,3.6503598160177466,Sonic,5.651948,HP15011600
5.672041,0.46370000000000017,0.6210000000000002,53.23000000000001,-125.80000000000003,731.8900000000001,4.015000000000001,4.087000000000001,5.670315,5.671865,0.6961237557722,9.291300645854664,-2.4828296116827873,6.66940372,-1.093084359414369,3.847929970728018,Sonic,5.672041,HP15011600
5.692021,0.46400000000000013,0.6211000000000002,52.98000000000001,-126.14000000000003,733.2100000000002,4.017000000000001,4.086000000000001,5.690295000000001,5.688426,0.7308401597574,9.328808043594211,-2.487742401299073,7.0582030399999995,-0.930173183991051,3.859165821713727,Sonic,5.692021,HP15011600
5.712113,0.46400000000000013,0.6216000000000002,53.07000000000001,-126.97000000000003,735.6900000000002,4.014000000000001,4.080000000000001,5.710387000000001,5.713268,0.7380228640302,9.40414260013866,-2.5392472455452992,7.2526027,-0.5529460376039248,4.37521170691353,Sonic,5.712113,HP15011600
5.732093,0.46390000000000015,0.6220000000000002,53.03000000000001,-127.01000000000002,733.8600000000001,4.013000000000001,4.079000000000001,5.730367,5.729829,0.7194675446588,9.452926887939704,-2.5630791451565433,7.23764888,-0.26771869629920086,4.314584761228497,Sonic,5.732093,HP15011600
5.752186,0.4641000000000001,0.6221000000000002,53.02000000000001,-127.49000000000002,736.1500000000001,4.008000000000001,4.077000000000001,5.75046,5.754671,0.6602102344082,9.531480252734578,-2.639745402187881,6.9161417499999995,-0.11183892442736987,4.472550207424845,Sonic,5.752186,HP15011600
5.772166,0.4641000000000001,0.6223000000000002,52.84000000000001,-127.49000000000002,734.9600000000002,4.005000000000001,4.073000000000001,5.770440000000001,5.771232,0.6620059104764,9.490960421640315,-2.5827901087927048,6.3703273199999995,-0.2626678948036921,4.7339283554411935,Sonic,5.772166,HP15011600
5.792258,0.4641000000000001,0.6224000000000002,52.70000000000001,-127.21000000000002,733.1100000000001,4.003000000000001,4.070000000000001,5.790532000000001,5.796073,0.6883424928099999,9.524530673543874,-2.583194447098712,5.6076825,-0.39339295555354215,4.838154312537293,Sonic,5.792258,HP15011600
5.812238,0.4641000000000001,0.6225000000000002,52.69000000000001,-127.22000000000003,732.7300000000001,4.002000000000001,4.069000000000001,5.810512,5.812634,0.7074963708708,9.507048238720046,-2.553165414210541,5.31608301,-0.39770247525630287,4.602107921394816,Sonic,5.812238,HP15011600
5.832331,0.46400000000000013,0.6225000000000002,53.17000000000001,-127.92000000000003,736.5000000000001,3.999000000000001,4.068000000000001,5.830605,5.829195,0.7314387184468,9.494374081214845,-2.5235464814141766,4.74783785,-0.338275975136337,4.665915914700894,Sonic,5.832331,HP15011600
5.852311,0.46400000000000013,0.6226000000000002,53.14000000000001,-127.96000000000002,736.2800000000001,4.000000000000001,4.069000000000001,5.850585000000001,5.854037,0.7583738594698001,9.42416180126858,-2.485369027688483,4.54596128,-0.17939220139535095,4.586280432685918,Sonic,5.852311,HP15011600
5.872403,0.46400000000000013,0.6228000000000002,53.00000000000001,-127.87000000000002,734.8900000000001,3.999000000000001,4.069000000000001,5.870677000000001,5.870598,0.775133502773,9.373782282613533,-2.457526466185613,4.46371527,-0.059902991631210156,4.644965651013134,Sonic,5.872403,HP15011600
5.892384,0.4641000000000001,0.6231000000000002,53.06000000000001,-128.51000000000002,736.8600000000001,3.9970000000000008,4.071000000000001,5.890658,5.895439,0.7589724181592,9.337293048467902,-2.4363079610222904,5.10672953,0.29005067052423006,4.60115649506499,Sonic,5.892384,HP15011600
5.912475,0.46420000000000017,0.6234000000000002,52.63000000000001,-128.14000000000001,733.3000000000002,3.996000000000001,4.076000000000001,5.910749,5.912001,0.760169535538,9.353833485453057,-2.4275851226242855,5.62263632,0.38265358634565294,4.497389701741208,Sonic,5.912475,HP15011600
5.932456,0.44570000000000015,0.6292000000000002,84.11000000000001,-138.54000000000002,759.9400000000002,3.999000000000001,4.092000000000001,5.9307300000000005,5.928562,0.7559796247122,9.411993844667439,-2.433216249826136,5.95909727,0.3443543956653359,4.604901778726893,Sonic,5.932456,HP15011600
5.952548,0.44410000000000016,0.6257000000000001,82.75000000000001,-129.27000000000004,725.1900000000002,4.005000000000001,4.102000000000001,5.9508220000000005,5.953403,0.775133502773,9.504932171304189,-2.4364487689611787,5.99648182,0.25108217153451595,4.166090484411932,Sonic,5.952548,HP15011600
5.972529,0.44440000000000013,0.6272000000000002,83.29000000000002,-132.26000000000002,734.8000000000002,4.006000000000001,4.087000000000001,5.970803,5.969964,0.7733378267048,9.507449464939858,-2.4418792830531215,5.65254396,0.10883914177852805,4.28805255878956,Sonic,5.972529,HP15011600
5.99262,0.44430000000000014,0.6278000000000002,84.33000000000001,-134.30000000000004,743.1000000000001,4.010000000000001,4.073000000000001,5.990894,5.994806,0.8176311697204001,9.350897680240173,-2.447154815934971,5.40580593,0.04209912008664618,4.225799102552328,Sonic,5.99262,HP15011600
6.012601,0.44410000000000016,0.6279000000000002,84.32000000000002,-133.84000000000003,739.9700000000001,4.011000000000001,4.077000000000001,6.010875,6.011367,0.8541432497738001,9.277828872922461,-2.45120534794061,5.89180508,0.40063872286242,4.04257387296546,Sonic,6.012601,HP15011600
6.032694,0.44410000000000016,0.6282000000000002,83.97000000000001,-133.57000000000002,737.2500000000001,4.010000000000001,4.068000000000001,6.0309680000000006,6.036209,0.8116455828264,9.433897041474701,-2.4568417745416737,6.6544498999999995,1.242684004660749,3.580765515336387,Sonic,6.032694,HP15011600
6.052673,0.44430000000000014,0.6281000000000002,84.08000000000001,-134.00000000000003,740.1100000000001,4.009000000000001,4.069000000000001,6.050947000000001,6.05277,0.7871046765609999,9.582529364989187,-2.4657931102054103,6.41518878,1.548297373612374,3.508161436872897,Sonic,6.052673,HP15011600
6.072766,0.44440000000000013,0.6279000000000002,83.68000000000002,-133.43000000000004,737.8200000000002,4.008000000000001,4.071000000000001,6.07104,6.069331,0.745205568303,9.691049307801606,-2.4619347798242717,5.76469761,1.4810262146648219,3.767066720275761,Sonic,6.072766,HP15011600
6.092746,0.4445000000000001,0.6279000000000002,83.87000000000002,-133.95000000000002,740.8400000000001,4.009000000000001,4.075000000000001,6.09102,6.094172,0.7200661033482001,9.623823764367252,-2.4097058362066806,4.35903853,0.914244842233926,4.193297771073242,Sonic,6.092746,HP15011600
6.112838,0.44460000000000016,0.6281000000000002,84.28000000000002,-135.14000000000001,746.4900000000001,4.010000000000001,4.075000000000001,6.111112,6.110733,0.7553810660228,9.493949345465245,-2.393114930309086,3.72350118,0.463456415140509,4.266183967557161,Sonic,6.112838,HP15011600
6.132819,0.4445000000000001,0.6286000000000002,85.51000000000002,-137.37000000000003,755.9600000000002,4.018000000000001,4.073000000000001,6.131093,6.135575,0.7631623289849999,9.279353237420434,-2.4123657873275897,4.05996213,0.069444577801683,4.426373259131754,Sonic,6.132819,HP15011600
6.152911,0.44510000000000016,0.6291000000000002,84.69000000000001,-137.91000000000003,757.0000000000001,4.017000000000001,4.071000000000001,6.151185,6.152136,0.7631623289849999,9.224968818659562,-2.4148804312636547,4.94971442,-0.00746902036456798,3.8847134990376513,Sonic,6.152911,HP15011600
6.172891,0.44580000000000014,0.6295000000000002,84.94000000000001,-140.56000000000003,769.5700000000002,4.023000000000001,4.076000000000001,6.171165,6.169558,,,,,,,Sonic,6.172891,HP15011600
6.192983,0.4465000000000001,0.6296000000000002,84.61000000000001,-141.93000000000004,776.5900000000001,4.032000000000001,4.091000000000001,6.191257,6.193539,0.790097470008,9.113130854698271,-2.333587037353176,7.45447927,1.2706325731148072,3.1009000477071957,Sonic,6.192983,HP15011600
6.212964,0.44690000000000013,0.6300000000000002,83.01000000000002,-140.86,768.9900000000001,4.035000000000001,4.093000000000001,6.211238000000001,6.2101,0.7128833990754,9.326084375062832,-2.509192978200909,8.8227538,1.6837249202669278,2.4550863040003437,Sonic,6.212964,HP15011600
6.233055,0.44710000000000016,0.6292000000000002,80.84000000000002,-136.95000000000002,751.3600000000001,4.043000000000001,4.094000000000001,6.231329000000001,6.234941,0.6410563563474001,9.377620677937664,-2.528714389912176,9.16669166,1.449587157697077,2.2526035188482907,Sonic,6.233055,HP15011600
6.253036,0.44780000000000014,0.6285000000000002,79.51000000000002,-135.86,748.9800000000001,4.057000000000001,4.1000000000000005,6.25131,6.251503,0.6458448258626,9.432025031755545,-2.56353176506197,9.39847587,1.268972963777421,2.841358554780123,Sonic,6.253036,HP15011600
6.273129,0.44870000000000015,0.6280000000000002,79.09000000000002,-137.20000000000002,759.0200000000001,4.069000000000001,4.105000000000001,6.271403,6.270968,,,,,,,Sonic,6.273129,HP15011600
6.293108,0.44960000000000017,0.6275000000000002,77.81000000000002,-136.99000000000004,760.4600000000002,4.082000000000001,4.110000000000001,6.2913820000000005,6.292905,0.6853496993629999,9.470876115940166,-2.6225800787298037,10.15364378,1.8680124243651357,2.171308427495928,Sonic,6.293108,HP15011600
6.313201,0.45030000000000014,0.6267000000000001,74.18000000000002,-131.56000000000003,734.4600000000002,4.097000000000001,4.114000000000001,6.311475000000001,6.309466,0.7134819577648001,9.433942673374515,-2.5602677872983213,9.854567379999999,1.9884199616739149,2.30623793568,Sonic,6.313201,HP15011600
6.333181,0.4510000000000001,0.6255000000000002,71.46000000000001,-127.58000000000003,717.6500000000001,4.104000000000001,4.121000000000001,6.331455,6.334308,0.7116862816966,9.476272521703898,-2.574160721507344,9.68259845,2.5187056997285815,1.528498685658231,Sonic,6.333181,HP15011600
6.353274,0.45110000000000017,0.6231000000000002,73.30000000000001,-129.11,738.1200000000001,4.130000000000001,4.130000000000001,6.351548,6.350869,0.7194675446588,9.380731861804238,-2.514077421274782,9.03210728,2.61855016363857,1.7824582398341249,Sonic,6.353274,HP15011600
6.373254,0.45120000000000016,0.6221000000000002,75.86000000000001,-132.93000000000004,765.4400000000002,4.120000000000001,4.145000000000001,6.3715280000000005,6.372591,,,,,,,Sonic,6.373254,HP15011600
6.393345,0.45230000000000015,0.6208000000000002,74.61000000000001,-132.63000000000002,770.8700000000001,4.145000000000001,4.157000000000001,6.391619,6.392271,0.4076184674814,8.691071545551862,-2.2867107171458536,13.21169997,2.5484520485737527,2.1719115382349488,Sonic,6.393345,HP15011600
6.413326,0.46830000000000016,0.6316000000000002,77.74000000000001,-228.00000000000006,1237.0100000000002,4.228000000000001,4.392000000000001,6.4116,6.417113,0.08798812734179999,8.024333052087254,-2.193333606108215,22.89429842,-0.4349724902104679,3.455793663176631,Sonic,6.413326,HP15011600
6.433418,0.5134000000000002,0.7135000000000002,-20.700000000000003,-173.24000000000004,617.8900000000001,4.321000000000001,4.230000000000001,6.431692,6.433674,-0.18435607633520001,7.714252514841023,-2.060111556975084,33.10775748,-4.743483050130279,3.935890822302138,Sonic,6.433418,HP15011600
6.453398,0.5350000000000001,0.7967000000000003,-47.55000000000001,-223.06000000000003,587.7900000000001,4.329000000000001,4.353000000000001,6.451672,6.450235,-0.206502747843,7.708385741427879,-1.8746733503358048,45.055859659999996,-9.733882699059016,4.660299320471864,Sonic,6.453398,HP15011600
6.47349,0.5526000000000002,0.8983000000000003,-57.12000000000001,-238.01000000000005,474.5600000000001,4.291000000000001,4.224000000000001,6.471764,6.47403,,,,,,,Sonic,6.47349,HP15011600
6.493471,0.5585000000000002,0.9736000000000004,-66.10000000000001,-290.9100000000001,491.0200000000001,4.302000000000001,4.2650000000000015,6.491745000000001,6.491637,-0.1837575176458,8.741782348843868,-2.4137564928322384,66.33514552,-23.667690054714868,6.032080318637605,Sonic,6.493471,HP15011600
6.513563,0.5535000000000002,0.9920000000000003,-59.13000000000001,-292.51000000000005,475.7000000000001,4.247000000000001,4.204000000000001,6.511837000000001,6.516479,0.2208681563886,9.92879493574666,-2.967133795757509,67.41929747,-29.605489414619747,6.506871881119387,Sonic,6.513563,HP15011600
6.533542,0.5464000000000002,0.9723000000000003,-50.72000000000001,-275.36000000000007,465.74000000000007,4.160000000000001,4.184000000000001,6.531816,6.53304,0.5422941725964,10.350360954720372,-3.474077261969044,61.48263093,-30.56825745053247,6.077066816498916,Sonic,6.533542,HP15011600
6.553634,0.5368000000000002,0.9519000000000003,-40.690000000000005,-262.13000000000005,462.4000000000001,4.139000000000001,4.155000000000001,6.551908,6.549601,0.7966816155914,10.383664226403951,-3.944999674371345,52.99633808,-29.364674340002193,6.77673089748753,Sonic,6.553634,HP15011600
6.573615,0.5328000000000002,0.9315000000000003,-38.35000000000001,-263.38000000000005,485.6700000000001,4.185000000000001,4.169000000000001,6.5718890000000005,6.574443,0.9295616446382,10.074403551574667,-4.484463894883837,40.95103607,-24.374634558490207,7.848726822160413,Sonic,6.573615,HP15011600
6.593708,0.5291000000000001,0.9226000000000003,-34.63000000000001,-258.9800000000001,487.1700000000001,4.156000000000001,4.169000000000001,6.591982000000001,6.591004,0.9349486728428,9.806006778588046,-4.808647315707578,34.28910926,-20.258295036194355,8.945910556740465,Sonic,6.593708,HP15011600
6.613688,0.5266000000000002,0.9180000000000003,-31.290000000000006,-250.97000000000006,476.9500000000001,4.137000000000001,4.183000000000001,6.611962,6.615845,0.83798216516,9.394990562838188,-5.043770675332715,26.40096921,-14.381023325618942,10.020418220724995,Sonic,6.613688,HP15011600
6.63378,0.5238000000000002,0.9139000000000003,-27.380000000000006,-239.78000000000006,460.0000000000001,4.132000000000001,4.168000000000001,6.632054,6.632406,0.7936888221444001,9.283393544487407,-5.108168037938035,22.26623798,-11.001900017286298,11.029695749475355,Sonic,6.63378,HP15011600
6.65376,0.5226000000000002,0.9109000000000003,-25.990000000000006,-235.95000000000005,455.7000000000001,4.136000000000001,4.180000000000001,6.6520340000000004,6.657248,0.697320873151,9.15200317257283,-5.1102247625694615,16.3744329,-6.612061267228935,11.579532712941585,Sonic,6.65376,HP15011600
6.673852,0.5218000000000002,0.9098000000000003,-25.290000000000006,-236.46000000000004,457.8400000000001,4.149000000000001,4.182000000000001,6.6721260000000004,6.673809,0.6506332953778,9.044795457576878,-5.073362648746429,12.718223909999999,-4.457858523403299,11.213370147701253,Sonic,6.673852,HP15011600
6.693833,0.5146000000000002,0.9149000000000003,-17.830000000000002,-232.65000000000003,445.0100000000001,4.141000000000001,4.184000000000001,6.692107,6.69037,0.6087341871198,8.883073114679584,-5.010838683020027,9.86204429,-3.120507475555848,10.60041760289024,Sonic,6.693833,HP15011600
6.713926,0.5118000000000001,0.9157000000000003,-16.080000000000002,-246.11000000000004,469.80000000000007,4.132000000000001,4.166000000000001,6.7122,6.715212,0.5817990460968,8.74338947712923,-4.9022089285107375,7.0582030399999995,-1.6376992515461757,10.132357998200591,Sonic,6.713926,HP15011600
6.733905,0.5119000000000001,0.9164000000000003,-16.26,-247.58000000000004,471.8800000000001,4.133000000000001,4.167000000000001,6.732179,6.731773,0.6242967130442,8.859223467324352,-4.846667263143491,5.56282104,-1.1498120793375093,9.730540376732343,Sonic,6.733905,HP15011600
6.753997,0.5107000000000002,0.9184000000000003,-14.800000000000002,-245.11000000000004,464.9600000000001,4.122000000000001,4.173000000000001,6.752271,6.756614,0.772140709326,8.969898885280056,-4.907519832260642,1.46547436,0.08808169488892181,9.261031307242385,Sonic,6.753997,HP15011600
6.773978,0.5109000000000001,0.9202000000000002,-14.720000000000002,-241.08000000000004,455.3800000000001,4.1240000000000006,4.164000000000001,6.772252,6.773175,0.8248138739931999,8.96935016456238,-4.904343543823837,-1.24864397,1.248038471135925,7.921390216446315,Sonic,6.773978,HP15011600
6.794069,0.5113000000000002,0.9226000000000003,-15.500000000000004,-247.87000000000006,465.7100000000001,4.115000000000001,4.122000000000001,6.792343000000001,6.798017,1.0367036500408,9.310726793000027,-5.002606485095112,-6.40771187,4.145819524166859,6.953826174186297,Sonic,6.794069,HP15011600
6.81405,0.5050000000000001,0.9070000000000003,-10.890000000000002,-285.11000000000007,555.1000000000001,4.269000000000001,4.130000000000001,6.812324,6.814578,1.1246917773826,9.260800356636992,-5.122335563699191,-11.38733393,7.071582244437039,6.117905520220766,Sonic,6.81405,HP15011600
6.834142,0.47360000000000013,0.8353000000000003,103.78000000000002,-918.2200000000001,2145.1200000000003,4.063000000000001,4.7280000000000015,6.832416,6.831139,1.2174683742396,9.306639965353154,-5.059259302782331,-15.94077212,10.405839898223174,5.8372482696799946,Sonic,6.834142,HP15011600
6.854123,,,,,,,,6.852397000000001,6.855981,1.4108028309158,9.644130379253836,-5.158531996162115,-23.89620436,16.61406828645003,3.8296931524483586,Sonic,6.854123,HP15011600
6.874215,,,,,,,,6.872489000000001,6.872542,1.3988316571277999,9.328574158402436,-5.051071011830796,-30.139424209999998,20.747270249093912,2.309062229269614,Sonic,6.874215,HP15011600
6.894195,,,,,,,,6.892469,6.897383,1.053463293344,8.822821460118979,-4.701245336394024,-33.90030994,25.606164680781887,2.476372225617969,Sonic,6.894195,HP15011600
6.914288,0.42400000000000015,0.6807000000000002,61.74000000000001,-96.96000000000002,396.50000000000006,3.339000000000001,3.862000000000001,6.912562,6.913945,0.8625230714254,8.579433643787063,-4.323352514428098,-33.242341859999996,26.754033476068923,2.446415732235719,Sonic,6.914288,HP15011600
6.934268,0.4384000000000001,0.5787000000000002,77.48000000000002,-74.90000000000002,610.6700000000001,3.805000000000001,4.222000000000001,6.932542000000001,6.930506,0.7410156574772001,8.561220423032895,-4.00311292599932,-30.83477684,26.494248739819582,1.3321105429391125,Sonic,6.934268,HP15011600
6.95436,0.4410000000000001,0.5056000000000002,78.88000000000001,-23.130000000000006,644.0300000000001,4.019000000000001,4.194000000000001,6.952634000000001,6.955347,0.5422941725964,8.543244111029864,-3.497508646986901,-26.03460062,24.492756272070682,-0.9637047970312782,Sonic,6.95436,HP15011600
6.974341,0.44480000000000014,0.5045000000000002,82.70000000000002,-24.920000000000005,721.8000000000002,4.039000000000001,4.167000000000001,6.972615,6.971908,0.347164039852,8.754620948437664,-3.326426593260496,-22.93168297,21.911299077634386,-1.4927958654338522,Sonic,6.974341,HP15011600
6.994433,0.45090000000000013,0.5176000000000002,79.11000000000001,-38.85000000000001,779.3900000000001,4.004000000000001,4.1160000000000005,6.992707,6.99675,0.2448105039646,8.91948097219759,-2.8847745436602015,-20.03064189,15.881571886130455,-1.9539580184054282,Sonic,6.994433,HP15011600
7.014414,0.4530000000000001,0.5228000000000002,76.52000000000001,-44.080000000000005,788.1200000000001,3.995000000000001,4.106000000000001,7.012688000000001,7.013311,0.2202695976992,8.993024521790755,-2.7633341983328608,-17.76513816,11.623514695421308,-1.6680398218320691,Sonic,7.014414,HP15011600
7.034506,0.45510000000000017,0.5327000000000002,71.32000000000001,-52.17000000000001,771.9400000000002,3.994000000000001,4.136000000000001,7.032780000000001,7.038152,0.26456294071479997,8.96001888880251,-2.4723827204500766,-14.67717433,5.57683154312676,-2.928212481231765,Sonic,7.034506,HP15011600
7.054486,0.45630000000000015,0.5375000000000002,73.21000000000001,-59.69000000000001,815.3300000000002,3.994000000000001,4.129000000000001,7.05276,7.054713,0.362128007087,8.989481915615604,-2.365438073434654,-12.105117289999999,2.5579405456924618,-3.249664890718239,Sonic,7.054486,HP15011600
7.074578,0.45670000000000016,0.5475000000000002,70.06000000000002,-67.15000000000002,789.4300000000002,4.000000000000001,4.081000000000001,7.072852,7.071274,0.39205594155699997,9.053977566346195,-2.2836858354463616,-9.62278317,0.3879103131579271,-3.1018125993388592,Sonic,7.074578,HP15011600
7.094559,0.45680000000000015,0.5513000000000001,70.66000000000001,-71.43,798.3600000000001,3.991000000000001,4.069000000000001,7.092833000000001,7.096116,0.5303229988084,9.115311101911185,-2.2110523626766754,-5.98900491,-1.565934194538336,-1.6851528381079979,Sonic,7.094559,HP15011600
7.11465,0.45690000000000014,0.5549000000000002,70.25000000000001,-74.63000000000001,795.5200000000002,3.975000000000001,4.054000000000001,7.1129240000000005,7.112677,0.5674336375512,9.171319098068476,-2.2296884696340955,-3.87303938,-1.9966575867034442,-0.798629092052127,Sonic,7.11465,HP15011600
7.134631,0.45680000000000015,0.5577000000000002,71.40000000000002,-78.39000000000001,807.5200000000002,3.982000000000001,4.050000000000001,7.132905,7.137519,0.619508243529,9.235158866084127,-2.231631345709283,-1.35332071,-1.540575114792252,0.663793104310644,Sonic,7.134631,HP15011600
7.154723,0.45690000000000014,0.5610000000000002,73.83000000000001,-84.60000000000002,837.9700000000001,3.9610000000000007,4.049000000000001,7.152997,7.15408,0.6207053609078,9.277188888405158,-2.2411770339905095,0.0747691,-0.98909586972756,1.280391636427995,Sonic,7.154723,HP15011600
7.174704,0.45690000000000014,0.5623000000000001,73.78000000000002,-85.78000000000002,836.9700000000001,3.964000000000001,4.043000000000001,7.1729780000000005,7.170641,0.6242967130442,9.365067393314348,-2.294124315193666,1.4206129,-0.251138373971604,1.551595045327908,Sonic,7.174704,HP15011600
7.194795,0.45700000000000013,0.5637000000000002,73.66000000000001,-87.34000000000002,838.3600000000001,3.9530000000000007,4.046000000000001,7.193069,7.195483,0.6673929386809999,9.500536643776973,-2.3822764868818114,1.72716621,0.9636474887592,1.476839094969525,Sonic,7.194795,HP15011600
7.214777,0.45700000000000013,0.5656000000000002,73.37000000000002,-88.93000000000002,835.5600000000002,3.951000000000001,4.042000000000001,7.213051,7.212044,0.6027486002258,9.493236769665481,-2.4425298663688495,1.7196893,1.7814894857653742,1.440592479828537,Sonic,7.214777,HP15011600
7.234868,0.44430000000000014,0.5967000000000002,95.16000000000003,-120.00000000000003,834.7900000000002,3.921000000000001,4.052000000000001,7.233142,7.236885,0.5740177831346,9.404368910091376,-2.549698173637379,1.7047354799999999,2.238496061134179,1.3969603696322819,Sonic,7.234868,HP15011600
7.254848,0.44530000000000014,0.6013000000000002,89.29000000000002,-119.16000000000003,798.8100000000002,3.922000000000001,4.030000000000001,7.253122,7.253446,0.5452869660434,9.416364137738436,-2.547964322157504,2.06362716,2.2798712271670016,0.692566479866751,Sonic,7.254848,HP15011600
7.27494,0.44590000000000013,0.6041000000000002,88.76000000000002,-122.48000000000002,802.9900000000001,3.925000000000001,4.016000000000001,7.273214,7.278288,0.4596930734592,9.264023628040283,-2.496001558606639,2.66177996,1.7871102992147159,0.5679875939089379,Sonic,7.27494,HP15011600
7.294921,0.4460000000000001,0.6051000000000002,90.33000000000001,-125.90000000000002,819.2500000000001,3.920000000000001,4.013000000000001,7.293195000000001,7.294849,0.46029163214859997,9.192575748419381,-2.5701567461746926,3.93285466,1.4581788742303858,0.530888848793688,Sonic,7.294921,HP15011600
7.315013,0.4465000000000001,0.6069000000000002,88.43000000000002,-126.09000000000002,809.4600000000002,3.922000000000001,4.009000000000001,7.313287000000001,7.31141,0.46986857117899994,9.081272331904563,-2.4834695962000897,5.99648182,1.3199632461567299,0.7437222561719998,Sonic,7.315013,HP15011600
7.334993,0.44710000000000016,0.6045000000000001,90.48000000000002,-127.93000000000002,836.7100000000002,3.924000000000001,4.017000000000001,7.333267,7.336251,0.4812411862776,9.259761421739725,-2.547721651620566,8.605923409999999,0.9026664515703869,1.405717580091531,Sonic,7.334993,HP15011600
7.355085,0.4475000000000001,0.6044000000000002,88.12000000000002,-125.53000000000003,821.7100000000002,3.913000000000001,4.019000000000001,7.353359,7.352812,0.460890190838,9.325414319076685,-2.5843180477634595,9.6452139,0.86984412737271,1.35918654029466,Sonic,7.355085,HP15011600
7.375066,0.44780000000000014,0.6050000000000002,87.24000000000002,-125.59000000000002,818.4700000000001,3.915000000000001,4.014000000000001,7.373340000000001,7.377654,0.4381449606408,9.329385573240886,-2.634728562660526,9.95176721,0.7534970905314509,1.9266372210349527,Sonic,7.375066,HP15011600
7.395158,0.4475000000000001,0.6037000000000002,89.66000000000001,-127.14000000000003,836.3900000000002,3.913000000000001,4.013000000000001,7.393432000000001,7.394215,0.4273709042316,9.37292889887488,-2.6745805250816628,9.82465974,0.701378336070426,3.443573287075908,Sonic,7.395158,HP15011600
7.415139,0.44710000000000016,0.6042000000000002,86.27000000000001,-121.96000000000002,799.1400000000001,3.913000000000001,4.012000000000001,7.413413,7.419057,0.4596930734592,9.358029324643542,-2.790740038127942,9.92933648,0.2692774525883611,4.215730598346497,Sonic,7.415139,HP15011600
7.435231,0.44810000000000016,0.6044000000000002,84.93000000000002,-122.60000000000002,802.3300000000002,3.908000000000001,4.004000000000001,7.433505,7.435618,0.442933430156,9.428284124403426,-2.8546276253564233,9.89195193,0.439535248368783,4.836920768187039,Sonic,7.435231,HP15011600
7.455211,0.44910000000000017,0.6026000000000002,86.81000000000002,-125.94000000000003,836.3100000000002,3.909000000000001,3.9930000000000008,7.453485000000001,7.452179,0.4465247822924,9.447584987947778,-2.8214023689744407,9.42838351,0.5153203744533181,4.797880295713974,Sonic,7.455211,HP15011600
7.475303,0.44920000000000015,0.6026000000000002,86.63000000000002,-125.85000000000002,835.5700000000002,3.912000000000001,4.001000000000001,7.473577000000001,7.477021,0.42018819995879997,9.580556879831743,-2.941456045656502,8.10497044,0.5150713552180771,5.264214093495861,Sonic,7.475303,HP15011600
7.495284,0.4495000000000001,0.6017000000000002,85.61000000000001,-124.10000000000002,830.1300000000001,3.918000000000001,4.004000000000001,7.493558,7.493582,0.4381449606408,9.456607652354137,-2.8422900518873937,6.66192681,-0.004260649871310029,5.73386710995252,Sonic,7.495284,HP15011600
7.515375,0.44970000000000016,0.6001000000000002,85.76000000000002,-123.46000000000002,836.2000000000002,3.919000000000001,4.012000000000001,7.513649,7.518423,0.5009936230277999,9.512660818024651,-2.837682387678671,5.8992819899999995,-0.10085786858987711,6.358271426199294,Sonic,7.515375,HP15011600
7.535356,0.44990000000000013,0.5998000000000002,85.02000000000001,-122.54000000000002,832.1900000000002,3.917000000000001,4.009000000000001,7.5336300000000005,7.534984,0.5159575902628,9.45872590708301,-2.7833830085450355,5.0842988,-0.126720762719418,6.524291675760305,Sonic,7.535356,HP15011600
7.555448,0.45010000000000017,0.5996000000000002,83.89000000000001,-121.17000000000003,824.5300000000002,3.919000000000001,4.010000000000001,7.5537220000000005,7.551545,0.5482797594904,9.436126957446797,-2.7687885597212603,4.8824222299999995,-0.17893881353600682,6.206701174030225,Sonic,7.555448,HP15011600
7.575429,0.45030000000000014,0.5996000000000002,83.74000000000002,-121.28000000000003,825.2400000000001,3.919000000000001,4.007000000000001,7.573703,7.576387,0.5638422854148,9.430750024353484,-2.7278701521067896,4.6207303799999995,-0.4157264864712331,6.027713490662766,Sonic,7.575429,HP15011600
7.595522,0.45040000000000013,0.5997000000000002,82.75000000000001,-120.34000000000002,818.2100000000002,3.921000000000001,4.007000000000001,7.593796,7.592948,0.5865875156120001,9.368474028563234,-2.635081969667509,4.35156162,-0.6270053567806981,5.896811384161026,Sonic,7.595522,HP15011600
7.615501,0.45060000000000017,0.5997000000000002,81.93000000000002,-119.80000000000003,814.0800000000002,3.919000000000001,4.008000000000001,7.613775,7.617789,0.6039457176046,9.46068249404282,-2.601443501107525,4.70297639,-0.54729790128237,5.69641427333349,Sonic,7.615501,HP15011600
7.635593,0.45080000000000015,0.5998000000000002,81.13000000000001,-119.14000000000003,809.3400000000001,3.919000000000001,4.008000000000001,7.633867,7.63435,0.6093327458091999,9.45086221420946,-2.5785504872487586,4.3366077999999995,-0.46303190684604,5.265729755866545,Sonic,7.635593,HP15011600
7.655574,0.45090000000000013,0.6000000000000002,80.39000000000001,-118.44000000000003,803.4600000000002,3.916000000000001,4.010000000000001,7.653848,7.659192,0.6219024782866001,9.43231068449269,-2.5593089664888367,4.44128454,-0.09792006429109801,4.89765278614061,Sonic,7.655574,HP15011600
7.675666,0.45110000000000017,0.6005000000000001,79.95000000000002,-118.69000000000003,801.6500000000002,3.914000000000001,4.008000000000001,7.67394,7.675753,0.5871860743014,9.438004266565166,-2.564190759863103,4.44876145,0.25941909291960896,4.493008208555097,Sonic,7.675666,HP15011600
7.695646,0.45120000000000016,0.6009000000000002,79.57000000000002,-118.84000000000002,800.2200000000001,3.915000000000001,4.008000000000001,7.69392,7.69278,,,,,,,Sonic,7.695646,HP15011600
7.715738,0.45130000000000015,0.6015000000000001,78.95000000000002,-118.84000000000002,796.2800000000002,3.914000000000001,4.007000000000001,7.714012,7.717155,0.5524696703162,9.474666229664878,-2.639295894368648,4.02257758,0.716779759792194,4.235270271932111,Sonic,7.715738,HP15011600
7.735719,0.4515000000000001,0.6022000000000002,78.71000000000002,-119.49000000000002,796.1600000000002,3.918000000000001,4.003000000000001,7.733993,7.733716,0.5111691207476,9.476122839893014,-2.635321990504841,3.70854736,0.845031955928559,4.047486503407241,Sonic,7.735719,HP15011600
7.755811,0.45160000000000017,0.6030000000000002,78.61000000000001,-120.36000000000003,796.9700000000001,3.917000000000001,4.004000000000001,7.754085,7.758558,0.49740227089140004,9.465612569016505,-2.6502220271227666,3.17768675,1.006421693068218,4.662917688744714,Sonic,7.755811,HP15011600
7.775791,0.45170000000000016,0.6040000000000002,78.24000000000001,-121.05000000000003,795.6900000000002,3.914000000000001,4.004000000000001,7.774065,7.775119,0.5063806512324001,9.459347681469739,-2.653785830894767,2.85617962,1.03094019466599,4.9940398603221,Sonic,7.775791,HP15011600
7.795883,0.45190000000000013,0.6048000000000002,78.15000000000002,-122.23000000000002,798.0700000000002,3.913000000000001,4.001000000000001,7.794157,7.794342,,,,,,,Sonic,7.795883,HP15011600
7.815863,0.45210000000000017,0.6057000000000002,78.70000000000002,-124.42000000000003,807.1100000000001,3.914000000000001,3.994000000000001,7.8141370000000006,7.816522,0.5303229988084,9.40705893268113,-2.6090153170715444,2.6543030499999998,0.9236713610025722,6.071705468275777,Sonic,7.815863,HP15011600
7.835956,0.45260000000000017,0.6085000000000002,77.03000000000002,-126.00000000000003,799.9300000000002,3.915000000000001,3.991000000000001,7.834230000000001,7.833083,0.5171547076416,9.382799647620676,-2.576321958436426,2.80384125,0.9849345162118139,6.288002041295561,Sonic,7.835956,HP15011600
7.855936,0.4530000000000001,0.6094000000000002,77.31000000000002,-128.17000000000002,808.6100000000001,3.913000000000001,3.991000000000001,7.85421,7.857925,0.5339143509448,9.391759857156407,-2.5341674887607315,3.00571782,0.6647991763848959,6.615943165251903,Sonic,7.855936,HP15011600
7.876028,0.45310000000000017,0.6104000000000002,78.43000000000002,-131.44000000000003,823.1100000000001,3.916000000000001,3.988000000000001,7.874302,7.874486,0.5758134592028,9.367859740888738,-2.491147649388197,3.08796383,0.084558107590047,6.655193782262046,Sonic,7.876028,HP15011600
7.896009,0.45370000000000016,0.6119000000000002,76.95000000000002,-132.09000000000003,818.3300000000002,3.898000000000001,3.983000000000001,7.894283000000001,7.895905,,,,,,,Sonic,7.896009,HP15011600
7.916101,0.4540000000000001,0.6130000000000002,77.59000000000002,-135.25000000000003,830.8900000000002,3.896000000000001,3.975000000000001,7.914375000000001,7.915888,0.6632030278551999,9.299095659685202,-2.4691882218826966,4.20950033,-0.975758573371071,6.1620398881078176,Sonic,7.916101,HP15011600
7.936081,0.45420000000000016,0.6142000000000002,77.87000000000002,-137.49000000000004,837.5600000000002,3.890000000000001,3.974000000000001,7.934355,7.932449,0.6781669950902001,9.33660305742475,-2.4741010114989828,4.88989914,-1.2330373462217372,5.7428013661636585,Sonic,7.936081,HP15011600
7.956174,0.45420000000000016,0.6144000000000002,78.32000000000002,-138.67000000000002,843.6300000000001,3.890000000000001,3.9730000000000008,7.954448,7.957291,0.7224603381057999,9.417633845741284,-2.4815337444505454,5.52543649,-1.363441414252995,5.021412640909349,Sonic,7.956174,HP15011600
7.976153,0.45430000000000015,0.6157000000000002,77.96000000000002,-139.72000000000003,841.6700000000002,3.885000000000001,3.9730000000000008,7.974427,7.973852,0.7523882725758,9.469062524232267,-2.461256774739307,5.7796514299999995,-1.30797034233201,4.63506841664622,Sonic,7.976153,HP15011600
7.996246,0.45440000000000014,0.6171000000000002,77.61000000000001,-140.61,838.6100000000001,3.879000000000001,3.974000000000001,7.9945200000000005,7.997498,,,,,,,Sonic,7.996246,HP15011600
8.016226,0.45440000000000014,0.6174000000000002,77.53000000000002,-140.94000000000003,838.8400000000001,3.880000000000001,3.9770000000000008,8.0145,8.015254,0.7505925965076,9.383229220382903,-2.4821759162808665,5.4730981199999995,-0.36349688382869405,3.180706799561088,Sonic,8.016226,HP15011600
8.036318,0.4540000000000001,0.6169000000000002,77.93000000000002,-139.72000000000003,834.4400000000002,3.959000000000001,3.974000000000001,8.034592,8.040096,0.6931309623252,9.489772178791924,-2.4962552903285897,5.80955907,0.34588160986197003,2.41840784795925,Sonic,8.036318,HP15011600
8.056299,0.4520000000000001,0.6187000000000002,80.69000000000001,-140.31000000000003,827.1000000000001,3.934000000000001,3.984000000000001,8.054573,8.056657,0.6452462671732,9.50818773758243,-2.4585583406641476,5.87685126,0.5812586926950509,1.871520240617748,Sonic,8.056299,HP15011600
8.076391,0.4515000000000001,0.6195000000000002,81.23000000000002,-140.65000000000003,824.4700000000001,3.9330000000000007,3.979000000000001,8.074665,8.073218,0.6398592389686001,9.5366273014024,-2.465827218533623,5.4581443,0.647218557896022,2.721266234276961,Sonic,8.076391,HP15011600
8.096371,0.45110000000000017,0.6199000000000002,81.58000000000001,-140.31000000000003,820.1800000000002,3.942000000000001,3.976000000000001,8.094645,8.09806,0.6290851825593999,9.481620645868208,-2.471269256197166,4.96466824,0.513456396491829,2.4515842636607066,Sonic,8.096371,HP15011600
8.116463,0.4505000000000001,0.6203000000000002,81.80000000000001,-139.60000000000002,813.4200000000002,3.954000000000001,3.979000000000001,8.114737,8.114621,0.5859889569226,9.450714719711597,-2.464088067654535,4.66559184,0.5628143924059651,2.28821392446507,Sonic,8.116463,HP15011600
8.136444,0.44990000000000013,0.6213000000000002,80.33000000000001,-136.18000000000004,788.1100000000001,3.948000000000001,3.982000000000001,8.134718,8.139463,0.5345129096342,9.471087790235087,-2.4977911783981632,5.11420644,0.636585817649334,2.2037377854916618,Sonic,8.136444,HP15011600
8.156535,0.44920000000000015,0.6220000000000002,80.05000000000001,-134.64000000000001,775.4500000000002,3.960000000000001,3.983000000000001,8.154809,8.156024,0.5470826421116001,9.425604238225512,-2.472825079323747,5.11420644,0.215228522595471,2.1633529204868283,Sonic,8.156535,HP15011600
8.176516,0.44860000000000017,0.6231000000000002,80.35000000000001,-134.28000000000003,767.6400000000001,3.951000000000001,3.988000000000001,8.17479,8.172585,0.4956065948232,9.41122457578285,-2.4483510078821817,5.233837,0.296274594712593,3.0481119849367735,Sonic,8.176516,HP15011600
8.196608,0.44860000000000017,0.6228000000000002,80.75000000000001,-134.96000000000004,772.7300000000001,3.962000000000001,3.990000000000001,8.194882,8.197426,0.47884695152,9.40728742994686,-2.4438425565719037,5.28617537,0.23069614388761506,4.17806761719039,Sonic,8.196608,HP15011600
8.216588,0.4475000000000001,0.6244000000000002,79.31000000000002,-130.93000000000004,741.8400000000001,3.963000000000001,3.998000000000001,8.214862,8.213987,0.4734599233154,9.407550497927392,-2.4512416435818416,5.63011323,0.22596055919772307,4.515407937043164,Sonic,8.216588,HP15011600
8.236681,0.44740000000000013,0.6247000000000001,79.89000000000001,-131.98000000000002,745.9200000000002,3.955000000000001,4.008000000000001,8.234955000000001,8.238829,0.4680728951108,9.398739970202543,-2.432234844260039,6.12358929,0.17013539577295822,5.115857987733024,Sonic,8.236681,HP15011600
8.256661,0.44810000000000016,0.6251000000000002,78.26000000000002,-131.41000000000003,741.0000000000001,3.962000000000001,4.054000000000001,8.254935,8.25539,0.4531089278758,9.39519033970175,-2.434540001214203,6.54977316,0.042342363408912176,5.341763901186321,Sonic,8.256661,HP15011600
8.276753,0.4485000000000001,0.6247000000000001,79.49000000000001,-134.24000000000004,759.0100000000001,3.966000000000001,4.075000000000001,8.275027,8.280231,0.46867145380020003,9.425239307646928,-2.4543895854762336,7.02081849,-0.3147477745665539,5.280074680989948,Sonic,8.276753,HP15011600
8.296733,0.44830000000000014,0.6249000000000002,79.28000000000002,-133.42000000000002,753.1600000000002,3.964000000000001,4.074000000000001,8.295007,8.296793,0.46867145380020003,9.446726642576584,-2.45406141292547,7.14792596,-0.748613339654544,5.540462527978307,Sonic,8.296733,HP15011600
8.316826,0.44820000000000015,0.6253000000000002,78.19000000000001,-131.70000000000002,741.4400000000002,3.9650000000000007,4.077000000000001,8.315100000000001,8.313354,0.532717233566,9.458391047973274,-2.4797941311848706,7.14044905,-1.150220816585715,5.557031298479955,Sonic,8.316826,HP15011600
8.336806,0.44790000000000013,0.6250000000000002,78.93000000000002,-132.01000000000002,744.5500000000002,3.979000000000001,4.083000000000001,8.33508,8.338195,0.5434912899752,9.468440287458952,-2.4641841684667862,6.9385724799999995,-1.420500122028015,4.788934487676885,Sonic,8.336806,HP15011600
8.356899,0.44790000000000013,0.6251000000000002,78.00000000000001,-130.64000000000001,736.3500000000001,3.983000000000001,4.089000000000001,8.355173,8.354756,0.5500754355586,9.454731143389024,-2.4912548113854602,6.69183445,-1.58037419679699,5.15160656440353,Sonic,8.356899,HP15011600
8.376878,0.4480000000000001,0.6250000000000002,77.03000000000002,-129.12000000000003,728.4300000000002,4.006000000000001,4.089000000000001,8.375152,8.379598,0.6087341871198,9.462158576941373,-2.5081318324067863,6.841372649999999,-1.5532057848338428,5.459233634196321,Sonic,8.376878,HP15011600
8.39697,0.4480000000000001,0.6249000000000002,76.61000000000001,-128.22000000000003,723.9500000000002,4.014000000000001,4.095000000000001,8.395244,8.396159,0.6248952717335999,9.468429226273937,-2.5333300032197164,6.72174209,-1.3644317152809842,5.304449235621017,Sonic,8.39697,HP15011600
